File: data/derived_data/xps/20170920_Gr-NH2_for_Radisurf/20170920_xps_survey2.txt
C:\Users\emilbp\PhD\Projects\graphene-production\data\derived_data\xps\20170920_Gr-NH2_for_Radisurf\GrNH2.vms
Survey/5
	Characteristic Energy eV	1486.69	Acquisition Time s	0.2
KE_Survey/5	BE_Survey/5	CPS_Survey/5	Background_Survey/5
136.68	1350.01	59040	59040
137.68	1349.01	58740	58740
138.68	1348.01	59245	59245
139.68	1347.01	58695	58695
140.68	1346.01	58690	58690
141.68	1345.01	59935	59935
142.68	1344.01	58840	58840
143.68	1343.01	58420	58420
144.68	1342.01	58070	58070
145.68	1341.01	58125	58125
146.68	1340.01	59375	59375
147.68	1339.01	58625	58625
148.68	1338.01	59250	59250
149.68	1337.01	59115	59115
150.68	1336.01	58670	58670
151.68	1335.01	58730	58730
152.68	1334.01	59100	59100
153.68	1333.01	59275	59275
154.68	1332.01	59430	59430
155.68	1331.01	59240	59240
156.68	1330.01	59320	59320
157.68	1329.01	59750	59750
158.68	1328.01	59510	59510
159.68	1327.01	58230	58230
160.68	1326.01	58735	58735
161.68	1325.01	59535	59535
162.68	1324.01	59410	59410
163.68	1323.01	59515	59515
164.68	1322.01	59395	59395
165.68	1321.01	60075	60075
166.68	1320.01	60305	60305
167.68	1319.01	60675	60675
168.68	1318.01	60175	60175
169.68	1317.01	59660	59660
170.68	1316.01	59540	59540
171.68	1315.01	59930	59930
172.68	1314.01	59005	59005
173.68	1313.01	59980	59980
174.68	1312.01	58985	58985
175.68	1311.01	60145	60145
176.68	1310.01	59545	59545
177.68	1309.01	59395	59395
178.68	1308.01	59915	59915
179.68	1307.01	61955	61955
180.68	1306.01	61920	61920
181.68	1305.01	63275	63275
182.68	1304.01	64585	64585
183.68	1303.01	64215	64215
184.68	1302.01	63440	63440
185.68	1301.01	62715	62715
186.68	1300.01	62005	62005
187.68	1299.01	61540	61540
188.68	1298.01	61640	61640
189.68	1297.01	61275	61275
190.68	1296.01	61345	61345
191.68	1295.01	61590	61590
192.68	1294.01	62640	62640
193.68	1293.01	62220	62220
194.68	1292.01	62210	62210
195.68	1291.01	61610	61610
196.68	1290.01	62365	62365
197.68	1289.01	62565	62565
198.68	1288.01	62655	62655
199.68	1287.01	62655	62655
200.68	1286.01	63370	63370
201.68	1285.01	63880	63880
202.68	1284.01	63350	63350
203.68	1283.01	63815	63815
204.68	1282.01	63510	63510
205.68	1281.01	64005	64005
206.68	1280.01	64180	64180
207.68	1279.01	64535	64535
208.68	1278.01	64475	64475
209.68	1277.01	65220	65220
210.68	1276.01	64425	64425
211.68	1275.01	64240	64240
212.68	1274.01	65000	65000
213.68	1273.01	65070	65070
214.68	1272.01	65805	65805
215.68	1271.01	65775	65775
216.68	1270.01	65670	65670
217.68	1269.01	65875	65875
218.68	1268.01	65480	65480
219.68	1267.01	66490	66490
220.68	1266.01	66895	66895
221.68	1265.01	66530	66530
222.68	1264.01	66375	66375
223.68	1263.01	67440	67440
224.68	1262.01	66790	66790
225.68	1261.01	67675	67675
226.68	1260.01	67105	67105
227.68	1259.01	67780	67780
228.68	1258.01	68410	68410
229.68	1257.01	68765	68765
230.68	1256.01	68310	68310
231.68	1255.01	68320	68320
232.68	1254.01	68245	68245
233.68	1253.01	69210	69210
234.68	1252.01	69855	69855
235.68	1251.01	71105	71105
236.68	1250.01	70010	70010
237.68	1249.01	71010	71010
238.68	1248.01	71555	71555
239.68	1247.01	72440	72440
240.68	1246.01	72430	72430
241.68	1245.01	73140	73140
242.68	1244.01	72845	72845
243.68	1243.01	71825	71825
244.68	1242.01	73110	73110
245.68	1241.01	72255	72255
246.68	1240.01	72540	72540
247.68	1239.01	73225	73225
248.68	1238.01	72200	72200
249.68	1237.01	72840	72840
250.68	1236.01	72485	72485
251.68	1235.01	72720	72720
252.68	1234.01	73695	73695
253.68	1233.01	74425	74425
254.68	1232.01	75545	75545
255.68	1231.01	77055	77055
256.68	1230.01	78655	78655
257.68	1229.01	78360	78360
258.68	1228.01	79580	79580
259.68	1227.01	78880	78880
260.68	1226.01	80175	80175
261.68	1225.01	79880	79880
262.68	1224.01	80140	80140
263.68	1223.01	79570	79570
264.68	1222.01	79005	79005
265.68	1221.01	78315	78315
266.68	1220.01	76605	76605
267.68	1219.01	75635	75635
268.68	1218.01	73495	73495
269.68	1217.01	72075	72075
270.68	1216.01	71560	71560
271.68	1215.01	68510	68510
272.68	1214.01	67410	67410
273.68	1213.01	64965	64965
274.68	1212.01	63040	63040
275.68	1211.01	62255	62255
276.68	1210.01	61505	61505
277.68	1209.01	59150	59150
278.68	1208.01	58760	58760
279.68	1207.01	57445	57445
280.68	1206.01	56435	56435
281.68	1205.01	55975	55975
282.68	1204.01	56570	56570
283.68	1203.01	55195	55195
284.68	1202.01	55505	55505
285.68	1201.01	55195	55195
286.68	1200.01	55225	55225
287.68	1199.01	55990	55990
288.68	1198.01	55830	55830
289.68	1197.01	56280	56280
290.68	1196.01	56170	56170
291.68	1195.01	57005	57005
292.68	1194.01	56050	56050
293.68	1193.01	55920	55920
294.68	1192.01	56945	56945
295.68	1191.01	56045	56045
296.68	1190.01	55910	55910
297.68	1189.01	56790	56790
298.68	1188.01	56665	56665
299.68	1187.01	57055	57055
300.68	1186.01	56505	56505
301.68	1185.01	57180	57180
302.68	1184.01	57165	57165
303.68	1183.01	55805	55805
304.68	1182.01	57275	57275
305.68	1181.01	57040	57040
306.68	1180.01	58390	58390
307.68	1179.01	57505	57505
308.68	1178.01	58640	58640
309.68	1177.01	57705	57705
310.68	1176.01	57790	57790
311.68	1175.01	56970	56970
312.68	1174.01	58485	58485
313.68	1173.01	58900	58900
314.68	1172.01	58555	58555
315.68	1171.01	58140	58140
316.68	1170.01	58400	58400
317.68	1169.01	58815	58815
318.68	1168.01	58850	58850
319.68	1167.01	59870	59870
320.68	1166.01	58660	58660
321.68	1165.01	58980	58980
322.68	1164.01	59670	59670
323.68	1163.01	59940	59940
324.68	1162.01	60155	60155
325.68	1161.01	60165	60165
326.68	1160.01	58590	58590
327.68	1159.01	60195	60195
328.68	1158.01	60270	60270
329.68	1157.01	60685	60685
330.68	1156.01	60645	60645
331.68	1155.01	60445	60445
332.68	1154.01	60290	60290
333.68	1153.01	60280	60280
334.68	1152.01	61135	61135
335.68	1151.01	61300	61300
336.68	1150.01	60405	60405
337.68	1149.01	61140	61140
338.68	1148.01	61785	61785
339.68	1147.01	61595	61595
340.68	1146.01	62795	62795
341.68	1145.01	61295	61295
342.68	1144.01	62865	62865
343.68	1143.01	61740	61740
344.68	1142.01	63090	63090
345.68	1141.01	62340	62340
346.68	1140.01	62035	62035
347.68	1139.01	63045	63045
348.68	1138.01	62445	62445
349.68	1137.01	62465	62465
350.68	1136.01	62280	62280
351.68	1135.01	62845	62845
352.68	1134.01	63925	63925
353.68	1133.01	63520	63520
354.68	1132.01	63110	63110
355.68	1131.01	62990	62990
356.68	1130.01	63465	63465
357.68	1129.01	64095	64095
358.68	1128.01	63650	63650
359.68	1127.01	64235	64235
360.68	1126.01	63975	63975
361.68	1125.01	64215	64215
362.68	1124.01	65110	65110
363.68	1123.01	64195	64195
364.68	1122.01	64050	64050
365.68	1121.01	64510	64510
366.68	1120.01	64670	64670
367.68	1119.01	65520	65520
368.68	1118.01	65590	65590
369.68	1117.01	65105	65105
370.68	1116.01	65000	65000
371.68	1115.01	65130	65130
372.68	1114.01	65660	65660
373.68	1113.01	66705	66705
374.68	1112.01	65080	65080
375.68	1111.01	65725	65725
376.68	1110.01	66755	66755
377.68	1109.01	66405	66405
378.68	1108.01	67205	67205
379.68	1107.01	66445	66445
380.68	1106.01	67185	67185
381.68	1105.01	67845	67845
382.68	1104.01	66775	66775
383.68	1103.01	67600	67600
384.68	1102.01	66920	66920
385.68	1101.01	67495	67495
386.68	1100.01	67640	67640
387.68	1099.01	68515	68515
388.68	1098.01	66895	66895
389.68	1097.01	68910	68910
390.68	1096.01	68305	68305
391.68	1095.01	68235	68235
392.68	1094.01	67300	67300
393.68	1093.01	67590	67590
394.68	1092.01	68510	68510
395.68	1091.01	68955	68955
396.68	1090.01	68880	68880
397.68	1089.01	68080	68080
398.68	1088.01	70200	70200
399.68	1087.01	69290	69290
400.68	1086.01	68870	68870
401.68	1085.01	68765	68765
402.68	1084.01	69405	69405
403.68	1083.01	70400	70400
404.68	1082.01	69365	69365
405.68	1081.01	69265	69265
406.68	1080.01	69760	69760
407.68	1079.01	69515	69515
408.68	1078.01	69645	69645
409.68	1077.01	70335	70335
410.68	1076.01	70655	70655
411.68	1075.01	70520	70520
412.68	1074.01	71130	71130
413.68	1073.01	71260	71260
414.68	1072.01	71285	71285
415.68	1071.01	71215	71215
416.68	1070.01	72015	72015
417.68	1069.01	71900	71900
418.68	1068.01	71175	71175
419.68	1067.01	69690	69690
420.68	1066.01	70375	70375
421.68	1065.01	72125	72125
422.68	1064.01	71490	71490
423.68	1063.01	71845	71845
424.68	1062.01	72225	72225
425.68	1061.01	72690	72690
426.68	1060.01	71920	71920
427.68	1059.01	72755	72755
428.68	1058.01	73300	73300
429.68	1057.01	72510	72510
430.68	1056.01	72335	72335
431.68	1055.01	73130	73130
432.68	1054.01	72200	72200
433.68	1053.01	72960	72960
434.68	1052.01	73380	73380
435.68	1051.01	74205	74205
436.68	1050.01	73615	73615
437.68	1049.01	74495	74495
438.68	1048.01	74380	74380
439.68	1047.01	74095	74095
440.68	1046.01	74915	74915
441.68	1045.01	75450	75450
442.68	1044.01	75660	75660
443.68	1043.01	75265	75265
444.68	1042.01	76055	76055
445.68	1041.01	75760	75760
446.68	1040.01	75440	75440
447.68	1039.01	75015	75015
448.68	1038.01	76615	76615
449.68	1037.01	76445	76445
450.68	1036.01	75435	75435
451.68	1035.01	75545	75545
452.68	1034.01	76570	76570
453.68	1033.01	76220	76220
454.68	1032.01	75840	75840
455.68	1031.01	76690	76690
456.68	1030.01	77385	77385
457.68	1029.01	76645	76645
458.68	1028.01	76220	76220
459.68	1027.01	77445	77445
460.68	1026.01	77275	77275
461.68	1025.01	78065	78065
462.68	1024.01	77870	77870
463.68	1023.01	79405	79405
464.68	1022.01	79225	79225
465.68	1021.01	79495	79495
466.68	1020.01	79625	79625
467.68	1019.01	80290	80290
468.68	1018.01	78305	78305
469.68	1017.01	79105	79105
470.68	1016.01	78615	78615
471.68	1015.01	79425	79425
472.68	1014.01	79905	79905
473.68	1013.01	80270	80270
474.68	1012.01	78955	78955
475.68	1011.01	79215	79215
476.68	1010.01	79155	79155
477.68	1009.01	80790	80790
478.68	1008.01	79235	79235
479.68	1007.01	80915	80915
480.68	1006.01	79940	79940
481.68	1005.01	80925	80925
482.68	1004.01	82330	82330
483.68	1003.01	82935	82935
484.68	1002.01	84180	84180
485.68	1001.01	84095	84095
486.68	1000.01	83660	83660
487.68	999.01	84165	84165
488.68	998.01	83435	83435
489.68	997.01	84100	84100
490.68	996.01	82625	82625
491.68	995.01	82170	82170
492.68	994.01	80995	80995
493.68	993.01	80210	80210
494.68	992.01	79995	79995
495.68	991.01	78410	78410
496.68	990.01	77050	77050
497.68	989.01	77820	77820
498.68	988.01	77075	77075
499.68	987.01	76360	76360
500.68	986.01	77265	77265
501.68	985.01	76695	76695
502.68	984.01	79240	79240
503.68	983.01	78940	78940
504.68	982.01	82425	82425
505.68	981.01	84950	84950
506.68	980.01	86100	86100
507.68	979.01	87360	87360
508.68	978.01	89185	89185
509.68	977.01	88950	88950
510.68	976.01	89305	89305
511.68	975.01	88075	88075
512.68	974.01	86075	86075
513.68	973.01	84240	84240
514.68	972.01	83560	83560
515.68	971.01	81010	81010
516.68	970.01	77655	77655
517.68	969.01	74570	74570
518.68	968.01	72210	72210
519.68	967.01	69105	69105
520.68	966.01	67530	67530
521.68	965.01	64930	64930
522.68	964.01	64590	64590
523.68	963.01	63550	63550
524.68	962.01	63510	63510
525.68	961.01	63220	63220
526.68	960.01	62910	62910
527.68	959.01	62855	62855
528.68	958.01	63125	63125
529.68	957.01	61685	61685
530.68	956.01	62355	62355
531.68	955.01	62240	62240
532.68	954.01	62580	62580
533.68	953.01	62110	62110
534.68	952.01	62435	62435
535.68	951.01	62595	62595
536.68	950.01	61785	61785
537.68	949.01	61845	61845
538.68	948.01	62260	62260
539.68	947.01	62525	62525
540.68	946.01	61735	61735
541.68	945.01	62230	62230
542.68	944.01	62410	62410
543.68	943.01	62690	62690
544.68	942.01	61770	61770
545.68	941.01	63200	63200
546.68	940.01	62870	62870
547.68	939.01	62600	62600
548.68	938.01	62680	62680
549.68	937.01	62705	62705
550.68	936.01	63035	63035
551.68	935.01	62955	62955
552.68	934.01	63035	63035
553.68	933.01	62830	62830
554.68	932.01	63475	63475
555.68	931.01	62410	62410
556.68	930.01	63295	63295
557.68	929.01	62475	62475
558.68	928.01	62860	62860
559.68	927.01	62065	62065
560.68	926.01	62845	62845
561.68	925.01	63275	63275
562.68	924.01	63045	63045
563.68	923.01	62130	62130
564.68	922.01	63040	63040
565.68	921.01	63695	63695
566.68	920.01	61985	61985
567.68	919.01	62520	62520
568.68	918.01	63245	63245
569.68	917.01	63230	63230
570.68	916.01	64240	64240
571.68	915.01	63165	63165
572.68	914.01	62540	62540
573.68	913.01	62975	62975
574.68	912.01	62300	62300
575.68	911.01	62910	62910
576.68	910.01	62935	62935
577.68	909.01	63410	63410
578.68	908.01	63270	63270
579.68	907.01	63735	63735
580.68	906.01	62265	62265
581.68	905.01	63665	63665
582.68	904.01	63205	63205
583.68	903.01	62685	62685
584.68	902.01	62795	62795
585.68	901.01	63225	63225
586.68	900.01	63635	63635
587.68	899.01	62800	62800
588.68	898.01	63380	63380
589.68	897.01	64050	64050
590.68	896.01	64035	64035
591.68	895.01	63765	63765
592.68	894.01	63715	63715
593.68	893.01	63960	63960
594.68	892.01	63595	63595
595.68	891.01	63515	63515
596.68	890.01	63535	63535
597.68	889.01	63185	63185
598.68	888.01	62855	62855
599.68	887.01	62000	62000
600.68	886.01	62120	62120
601.68	885.01	62610	62610
602.68	884.01	63120	63120
603.68	883.01	62335	62335
604.68	882.01	62800	62800
605.68	881.01	61980	61980
606.68	880.01	62560	62560
607.68	879.01	61965	61965
608.68	878.01	62615	62615
609.68	877.01	62230	62230
610.68	876.01	63435	63435
611.68	875.01	61790	61790
612.68	874.01	62520	62520
613.68	873.01	63395	63395
614.68	872.01	62080	62080
615.68	871.01	62080	62080
616.68	870.01	61735	61735
617.68	869.01	61865	61865
618.68	868.01	62330	62330
619.68	867.01	62390	62390
620.68	866.01	62025	62025
621.68	865.01	61870	61870
622.68	864.01	62220	62220
623.68	863.01	61505	61505
624.68	862.01	62695	62695
625.68	861.01	62345	62345
626.68	860.01	62945	62945
627.68	859.01	62880	62880
628.68	858.01	62055	62055
629.68	857.01	62030	62030
630.68	856.01	62165	62165
631.68	855.01	62800	62800
632.68	854.01	62980	62980
633.68	853.01	62685	62685
634.68	852.01	62315	62315
635.68	851.01	62420	62420
636.68	850.01	61405	61405
637.68	849.01	61855	61855
638.68	848.01	61920	61920
639.68	847.01	62440	62440
640.68	846.01	61960	61960
641.68	845.01	61805	61805
642.68	844.01	62070	62070
643.68	843.01	61340	61340
644.68	842.01	61590	61590
645.68	841.01	62215	62215
646.68	840.01	61490	61490
647.68	839.01	62100	62100
648.68	838.01	61410	61410
649.68	837.01	61200	61200
650.68	836.01	62470	62470
651.68	835.01	61095	61095
652.68	834.01	60965	60965
653.68	833.01	61655	61655
654.68	832.01	60260	60260
655.68	831.01	59495	59495
656.68	830.01	60860	60860
657.68	829.01	60100	60100
658.68	828.01	60235	60235
659.68	827.01	60875	60875
660.68	826.01	61630	61630
661.68	825.01	60030	60030
662.68	824.01	60735	60735
663.68	823.01	60285	60285
664.68	822.01	60380	60380
665.68	821.01	59925	59925
666.68	820.01	59925	59925
667.68	819.01	60385	60385
668.68	818.01	60390	60390
669.68	817.01	60420	60420
670.68	816.01	61025	61025
671.68	815.01	60720	60720
672.68	814.01	60675	60675
673.68	813.01	61200	61200
674.68	812.01	61035	61035
675.68	811.01	60925	60925
676.68	810.01	61005	61005
677.68	809.01	61280	61280
678.68	808.01	61095	61095
679.68	807.01	60700	60700
680.68	806.01	60295	60295
681.68	805.01	60610	60610
682.68	804.01	60570	60570
683.68	803.01	61290	61290
684.68	802.01	60205	60205
685.68	801.01	61380	61380
686.68	800.01	61220	61220
687.68	799.01	60845	60845
688.68	798.01	60160	60160
689.68	797.01	61780	61780
690.68	796.01	61320	61320
691.68	795.01	61320	61320
692.68	794.01	61265	61265
693.68	793.01	61025	61025
694.68	792.01	61025	61025
695.68	791.01	60820	60820
696.68	790.01	61770	61770
697.68	789.01	61800	61800
698.68	788.01	62240	62240
699.68	787.01	61785	61785
700.68	786.01	62020	62020
701.68	785.01	61740	61740
702.68	784.01	61835	61835
703.68	783.01	62150	62150
704.68	782.01	61825	61825
705.68	781.01	61590	61590
706.68	780.01	62285	62285
707.68	779.01	61290	61290
708.68	778.01	62065	62065
709.68	777.01	61480	61480
710.68	776.01	61085	61085
711.68	775.01	60920	60920
712.68	774.01	61090	61090
713.68	773.01	61345	61345
714.68	772.01	61280	61280
715.68	771.01	61700	61700
716.68	770.01	60980	60980
717.68	769.01	61070	61070
718.68	768.01	60855	60855
719.68	767.01	61430	61430
720.68	766.01	60915	60915
721.68	765.01	60915	60915
722.68	764.01	61100	61100
723.68	763.01	59945	59945
724.68	762.01	60740	60740
725.68	761.01	60410	60410
726.68	760.01	60405	60405
727.68	759.01	60595	60595
728.68	758.01	61060	61060
729.68	757.01	60935	60935
730.68	756.01	61650	61650
731.68	755.01	60845	60845
732.68	754.01	61215	61215
733.68	753.01	60370	60370
734.68	752.01	61660	61660
735.68	751.01	60820	60820
736.68	750.01	61635	61635
737.68	749.01	61450	61450
738.68	748.01	60765	60765
739.68	747.01	61090	61090
740.68	746.01	61140	61140
741.68	745.01	61810	61810
742.68	744.01	61465	61465
743.68	743.01	61695	61695
744.68	742.01	61550	61550
745.68	741.01	61750	61750
746.68	740.01	60660	60660
747.68	739.01	60630	60630
748.68	738.01	61885	61885
749.68	737.01	61180	61180
750.68	736.01	60795	60795
751.68	735.01	61585	61585
752.68	734.01	61605	61605
753.68	733.01	61300	61300
754.68	732.01	61460	61460
755.68	731.01	61210	61210
756.68	730.01	61375	61375
757.68	729.01	60910	60910
758.68	728.01	61755	61755
759.68	727.01	62965	62965
760.68	726.01	61690	61690
761.68	725.01	62940	62940
762.68	724.01	61530	61530
763.68	723.01	61640	61640
764.68	722.01	60000	60000
765.68	721.01	60690	60690
766.68	720.01	61315	61315
767.68	719.01	60245	60245
768.68	718.01	60560	60560
769.68	717.01	59715	59715
770.68	716.01	59620	59620
771.68	715.01	60850	60850
772.68	714.01	61100	61100
773.68	713.01	61550	61550
774.68	712.01	63110	63110
775.68	711.01	62605	62605
776.68	710.01	61695	61695
777.68	709.01	59555	59555
778.68	708.01	58290	58290
779.68	707.01	58690	58690
780.68	706.01	57820	57820
781.68	705.01	56935	56935
782.68	704.01	57595	57595
783.68	703.01	57005	57005
784.68	702.01	56560	56560
785.68	701.01	57110	57110
786.68	700.01	56770	56770
787.68	699.01	56515	56515
788.68	698.01	56815	56815
789.68	697.01	56640	56640
790.68	696.01	56750	56750
791.68	695.01	57785	57785
792.68	694.01	57240	57240
793.68	693.01	57620	57620
794.68	692.01	57450	57450
795.68	691.01	56655	56655
796.68	690.01	56975	56975
797.68	689.01	56895	56895
798.68	688.01	57160	57160
799.68	687.01	57645	57645
800.68	686.01	56465	56465
801.68	685.01	56770	56770
802.68	684.01	57335	57335
803.68	683.01	56960	56960
804.68	682.01	56985	56985
805.68	681.01	57165	57165
806.68	680.01	56915	56915
807.68	679.01	56860	56860
808.68	678.01	58000	58000
809.68	677.01	57570	57570
810.68	676.01	57250	57250
811.68	675.01	58320	58320
812.68	674.01	57535	57535
813.68	673.01	57770	57770
814.68	672.01	58060	58060
815.68	671.01	58725	58725
816.68	670.01	58145	58145
817.68	669.01	57805	57805
818.68	668.01	57910	57910
819.68	667.01	58285	58285
820.68	666.01	57360	57360
821.68	665.01	58495	58495
822.68	664.01	57845	57845
823.68	663.01	58060	58060
824.68	662.01	58290	58290
825.68	661.01	57965	57965
826.68	660.01	58730	58730
827.68	659.01	58050	58050
828.68	658.01	58470	58470
829.68	657.01	58065	58065
830.68	656.01	58815	58815
831.68	655.01	58570	58570
832.68	654.01	58325	58325
833.68	653.01	57660	57660
834.68	652.01	59105	59105
835.68	651.01	58360	58360
836.68	650.01	59120	59120
837.68	649.01	58205	58205
838.68	648.01	59105	59105
839.68	647.01	59645	59645
840.68	646.01	59765	59765
841.68	645.01	59330	59330
842.68	644.01	58915	58915
843.68	643.01	59330	59330
844.68	642.01	59450	59450
845.68	641.01	58975	58975
846.68	640.01	60190	60190
847.68	639.01	59830	59830
848.68	638.01	59380	59380
849.68	637.01	59875	59875
850.68	636.01	58285	58285
851.68	635.01	59470	59470
852.68	634.01	60155	60155
853.68	633.01	59395	59395
854.68	632.01	59175	59175
855.68	631.01	59390	59390
856.68	630.01	59210	59210
857.68	629.01	59595	59595
858.68	628.01	59035	59035
859.68	627.01	59900	59900
860.68	626.01	58190	58190
861.68	625.01	59760	59760
862.68	624.01	60375	60375
863.68	623.01	60425	60425
864.68	622.01	60475	60475
865.68	621.01	59790	59790
866.68	620.01	60200	60200
867.68	619.01	59370	59370
868.68	618.01	60145	60145
869.68	617.01	60265	60265
870.68	616.01	59180	59180
871.68	615.01	59915	59915
872.68	614.01	60340	60340
873.68	613.01	59940	59940
874.68	612.01	61285	61285
875.68	611.01	60350	60350
876.68	610.01	60110	60110
877.68	609.01	60790	60790
878.68	608.01	60935	60935
879.68	607.01	60560	60560
880.68	606.01	60205	60205
881.68	605.01	60570	60570
882.68	604.01	60965	60965
883.68	603.01	61040	61040
884.68	602.01	60230	60230
885.68	601.01	61645	61645
886.68	600.01	60465	60465
887.68	599.01	60460	60460
888.68	598.01	60955	60955
889.68	597.01	61150	61150
890.68	596.01	61565	61565
891.68	595.01	60775	60775
892.68	594.01	60955	60955
893.68	593.01	61975	61975
894.68	592.01	60980	60980
895.68	591.01	62325	62325
896.68	590.01	61035	61035
897.68	589.01	62040	62040
898.68	588.01	62370	62370
899.68	587.01	62645	62645
900.68	586.01	62700	62700
901.68	585.01	63385	63385
902.68	584.01	61440	61440
903.68	583.01	61095	61095
904.68	582.01	61175	61175
905.68	581.01	61450	61450
906.68	580.01	61610	61610
907.68	579.01	61995	61995
908.68	578.01	62605	62605
909.68	577.01	64285	64285
910.68	576.01	64030	64030
911.68	575.01	62670	62670
912.68	574.01	61220	61220
913.68	573.01	60185	60185
914.68	572.01	59310	59310
915.68	571.01	59810	59810
916.68	570.01	59840	59840
917.68	569.01	60360	60360
918.68	568.01	60390	60390
919.68	567.01	59990	59990
920.68	566.01	60590	60590
921.68	565.01	59845	59845
922.68	564.01	60330	60330
923.68	563.01	61095	61095
924.68	562.01	61175	61175
925.68	561.01	62650	62650
926.68	560.01	62960	62960
927.68	559.01	64575	64575
928.68	558.01	64440	64440
929.68	557.01	65845	65845
930.68	556.01	64310	64310
931.68	555.01	64105	64105
932.68	554.01	63485	63485
933.68	553.01	62045	62045
934.68	552.01	60220	60220
935.68	551.01	60340	60340
936.68	550.01	58990	58990
937.68	549.01	57380	57380
938.68	548.01	56035	56035
939.68	547.01	54485	54485
940.68	546.01	54450	54450
941.68	545.01	51845	51845
942.68	544.01	50565	50565
943.68	543.01	49540	49540
944.68	542.01	48350	48350
945.68	541.01	48370	48370
946.68	540.01	47370	47370
947.68	539.01	47430	47430
948.68	538.01	48275	47420.9
949.68	537.01	50170	47375.5
950.68	536.01	54855	47255.8
951.68	535.01	70295	46907.3
952.68	534.01	105865	45982.5
953.68	533.01	162660	44022.8
954.68	532.01	180880	41391.9
955.68	531.01	128585	39417.1
956.68	530.01	76105	38494.5
957.68	529.01	50480	38168.2
958.68	528.01	41425	38082.3
959.68	527.01	38930	38059.7
960.68	526.01	38055	38055
961.68	525.01	38105	38105
962.68	524.01	37660	37660
963.68	523.01	37335	37335
964.68	522.01	37870	37870
965.68	521.01	37465	37465
966.68	520.01	37455	37455
967.68	519.01	37360	37360
968.68	518.01	37820	37820
969.68	517.01	37425	37425
970.68	516.01	37090	37090
971.68	515.01	37500	37500
972.68	514.01	37660	37660
973.68	513.01	38075	38075
974.68	512.01	38810	38810
975.68	511.01	37865	37865
976.68	510.01	37500	37500
977.68	509.01	37340	37340
978.68	508.01	37415	37415
979.68	507.01	37600	37600
980.68	506.01	38090	38090
981.68	505.01	38065	38065
982.68	504.01	37385	37385
983.68	503.01	37825	37825
984.68	502.01	37775	37775
985.68	501.01	38410	38410
986.68	500.01	38060	38060
987.68	499.01	38320	38320
988.68	498.01	39190	39190
989.68	497.01	38640	38640
990.68	496.01	38245	38245
991.68	495.01	38705	38705
992.68	494.01	38465	38465
993.68	493.01	38695	38695
994.68	492.01	38400	38400
995.68	491.01	38420	38420
996.68	490.01	38735	38735
997.68	489.01	38550	38550
998.68	488.01	38635	38635
999.68	487.01	39140	39140
1000.68	486.01	39605	39605
1001.68	485.01	38345	38345
1002.68	484.01	38785	38785
1003.68	483.01	37850	37850
1004.68	482.01	39040	39040
1005.68	481.01	39085	39085
1006.68	480.01	38625	38625
1007.68	479.01	39390	39390
1008.68	478.01	38110	38110
1009.68	477.01	39055	39055
1010.68	476.01	39065	39065
1011.68	475.01	39505	39505
1012.68	474.01	39265	39265
1013.68	473.01	39480	39480
1014.68	472.01	39030	39030
1015.68	471.01	38695	38695
1016.68	470.01	39735	39735
1017.68	469.01	39510	39510
1018.68	468.01	39105	39105
1019.68	467.01	38610	38610
1020.68	466.01	38880	38880
1021.68	465.01	39920	39920
1022.68	464.01	40500	40500
1023.68	463.01	40305	40305
1024.68	462.01	39820	39820
1025.68	461.01	40075	40075
1026.68	460.01	40300	40300
1027.68	459.01	40630	40630
1028.68	458.01	40670	40670
1029.68	457.01	40045	40045
1030.68	456.01	40160	40160
1031.68	455.01	40750	40750
1032.68	454.01	40485	40485
1033.68	453.01	39340	39340
1034.68	452.01	40290	40290
1035.68	451.01	40295	40295
1036.68	450.01	39995	39995
1037.68	449.01	40150	40150
1038.68	448.01	39900	39900
1039.68	447.01	40890	40890
1040.68	446.01	40840	40840
1041.68	445.01	40350	40350
1042.68	444.01	40900	40900
1043.68	443.01	41060	41060
1044.68	442.01	41280	41280
1045.68	441.01	41710	41710
1046.68	440.01	42040	42040
1047.68	439.01	42115	42115
1048.68	438.01	41665	41665
1049.68	437.01	40795	40795
1050.68	436.01	41025	41025
1051.68	435.01	40815	40815
1052.68	434.01	41340	41340
1053.68	433.01	40350	40350
1054.68	432.01	41300	41300
1055.68	431.01	40650	40650
1056.68	430.01	41370	41370
1057.68	429.01	41695	41695
1058.68	428.01	42070	42070
1059.68	427.01	41125	41125
1060.68	426.01	41005	41005
1061.68	425.01	41725	41725
1062.68	424.01	40020	40020
1063.68	423.01	42165	42165
1064.68	422.01	41670	41670
1065.68	421.01	41700	41700
1066.68	420.01	41340	41340
1067.68	419.01	41685	41685
1068.68	418.01	40735	40735
1069.68	417.01	41035	41035
1070.68	416.01	41170	41170
1071.68	415.01	41700	41700
1072.68	414.01	42090	42090
1073.68	413.01	42225	42225
1074.68	412.01	41670	41670
1075.68	411.01	41690	41690
1076.68	410.01	42280	42280
1077.68	409.01	41275	41275
1078.68	408.01	42520	42520
1079.68	407.01	42230	42230
1080.68	406.01	42625	42625
1081.68	405.01	43020	43020
1082.68	404.01	42810	42810
1083.68	403.01	43605	42647.4
1084.68	402.01	43815	42641.2
1085.68	401.01	45230	42628.1
1086.68	400.01	45470	42612.6
1087.68	399.01	45655	42596.2
1088.68	398.01	43985	42586.4
1089.68	397.01	42585	42585
1090.68	396.01	42690	42690
1091.68	395.01	42710	42710
1092.68	394.01	42560	42560
1093.68	393.01	42205	42205
1094.68	392.01	42760	42760
1095.68	391.01	42820	42820
1096.68	390.01	43505	43505
1097.68	389.01	42820	42820
1098.68	388.01	42855	42855
1099.68	387.01	44255	44255
1100.68	386.01	43140	43140
1101.68	385.01	43845	43845
1102.68	384.01	43565	43565
1103.68	383.01	43550	43550
1104.68	382.01	43685	43685
1105.68	381.01	42835	42835
1106.68	380.01	43800	43800
1107.68	379.01	43880	43880
1108.68	378.01	44345	44345
1109.68	377.01	43470	43470
1110.68	376.01	44115	44115
1111.68	375.01	43780	43780
1112.68	374.01	44205	44205
1113.68	373.01	43900	43900
1114.68	372.01	43685	43685
1115.68	371.01	44735	44735
1116.68	370.01	44520	44520
1117.68	369.01	44085	44085
1118.68	368.01	44340	44340
1119.68	367.01	44720	44720
1120.68	366.01	44280	44280
1121.68	365.01	44635	44635
1122.68	364.01	44530	44530
1123.68	363.01	44505	44505
1124.68	362.01	44170	44170
1125.68	361.01	44145	44145
1126.68	360.01	44680	44680
1127.68	359.01	45855	45855
1128.68	358.01	44900	44900
1129.68	357.01	45375	45375
1130.68	356.01	45040	45040
1131.68	355.01	45645	45645
1132.68	354.01	46175	46175
1133.68	353.01	47435	47435
1134.68	352.01	48115	48115
1135.68	351.01	47975	47975
1136.68	350.01	47535	47535
1137.68	349.01	48445	48445
1138.68	348.01	50480	50480
1139.68	347.01	49545	49545
1140.68	346.01	46910	46910
1141.68	345.01	46440	46440
1142.68	344.01	45410	45410
1143.68	343.01	46095	46095
1144.68	342.01	46265	46265
1145.68	341.01	45625	45625
1146.68	340.01	47140	47140
1147.68	339.01	46745	46745
1148.68	338.01	46645	46645
1149.68	337.01	45625	45625
1150.68	336.01	45805	45805
1151.68	335.01	44995	44995
1152.68	334.01	46250	46250
1153.68	333.01	45550	45550
1154.68	332.01	45205	45205
1155.68	331.01	45930	45930
1156.68	330.01	45820	45820
1157.68	329.01	45530	45530
1158.68	328.01	46135	46135
1159.68	327.01	45910	45910
1160.68	326.01	45595	45595
1161.68	325.01	46475	46475
1162.68	324.01	47125	47125
1163.68	323.01	46940	46940
1164.68	322.01	47730	47730
1165.68	321.01	48200	48200
1166.68	320.01	48375	48375
1167.68	319.01	48950	48950
1168.68	318.01	49815	49815
1169.68	317.01	49735	49735
1170.68	316.01	49960	49960
1171.68	315.01	50690	50690
1172.68	314.01	50405	50405
1173.68	313.01	51835	51835
1174.68	312.01	50340	50340
1175.68	311.01	51110	51110
1176.68	310.01	51450	51450
1177.68	309.01	51820	51820
1178.68	308.01	52275	52275
1179.68	307.01	51510	51510
1180.68	306.01	48400	48400
1181.68	305.01	44760	44760
1182.68	304.01	40865	40865
1183.68	303.01	38760	38760
1184.68	302.01	37125	37125
1185.68	301.01	34855	34855
1186.68	300.01	32645	32645
1187.68	299.01	30765	30765
1188.68	298.01	29170	29170
1189.68	297.01	28080	28080
1190.68	296.01	27225	27225
1191.68	295.01	27550	27286.8
1192.68	294.01	27975	27275.9
1193.68	293.01	28290	27254.4
1194.68	292.01	30460	27193.8
1195.68	291.01	34330	27046.2
1196.68	290.01	42175	26732.1
1197.68	289.01	52780	26162.4
1198.68	288.01	67265	25269.7
1199.68	287.01	106310	23570.1
1200.68	286.01	147015	20791.6
1201.68	285.01	189580	16942.6
1202.68	284.01	180840	12665.9
1203.68	283.01	79135	10383.1
1204.68	282.01	18405	9964.6
1205.68	281.01	11790	9901.95
1206.68	280.01	10550	9880
1207.68	279.01	9275	9275
1208.68	278.01	9235	9235
1209.68	277.01	8545	8545
1210.68	276.01	8775	8775
1211.68	275.01	8825	8825
1212.68	274.01	8800	8800
1213.68	273.01	8605	8605
1214.68	272.01	8785	8785
1215.68	271.01	9210	9210
1216.68	270.01	9185	9185
1217.68	269.01	9050	9050
1218.68	268.01	8650	8650
1219.68	267.01	8830	8830
1220.68	266.01	8865	8865
1221.68	265.01	8490	8490
1222.68	264.01	8605	8605
1223.68	263.01	8575	8575
1224.68	262.01	8515	8515
1225.68	261.01	8705	8705
1226.68	260.01	8390	8390
1227.68	259.01	8635	8635
1228.68	258.01	8615	8615
1229.68	257.01	8705	8705
1230.68	256.01	8800	8800
1231.68	255.01	8530	8530
1232.68	254.01	8405	8405
1233.68	253.01	8425	8425
1234.68	252.01	8400	8400
1235.68	251.01	8525	8525
1236.68	250.01	8490	8490
1237.68	249.01	8555	8555
1238.68	248.01	8550	8550
1239.68	247.01	8295	8295
1240.68	246.01	8515	8515
1241.68	245.01	8580	8580
1242.68	244.01	8910	8910
1243.68	243.01	8790	8790
1244.68	242.01	8600	8600
1245.68	241.01	8550	8550
1246.68	240.01	8505	8505
1247.68	239.01	8755	8755
1248.68	238.01	8360	8360
1249.68	237.01	8530	8530
1250.68	236.01	8565	8565
1251.68	235.01	8720	8720
1252.68	234.01	9390	9390
1253.68	233.01	9780	9780
1254.68	232.01	9650	9650
1255.68	231.01	9980	9980
1256.68	230.01	8855	8855
1257.68	229.01	8705	8705
1258.68	228.01	8915	8915
1259.68	227.01	8555	8555
1260.68	226.01	8700	8700
1261.68	225.01	8460	8460
1262.68	224.01	8640	8640
1263.68	223.01	8510	8510
1264.68	222.01	8780	8780
1265.68	221.01	8545	8545
1266.68	220.01	8635	8635
1267.68	219.01	8590	8590
1268.68	218.01	8525	8525
1269.68	217.01	8195	8195
1270.68	216.01	8655	8655
1271.68	215.01	8430	8430
1272.68	214.01	8600	8600
1273.68	213.01	8365	8365
1274.68	212.01	8570	8570
1275.68	211.01	8615	8615
1276.68	210.01	8535	8535
1277.68	209.01	8295	8295
1278.68	208.01	8220	8220
1279.68	207.01	8410	8410
1280.68	206.01	8355	8355
1281.68	205.01	8370	8370
1282.68	204.01	8100	8100
1283.68	203.01	8285	8285
1284.68	202.01	9025	8341.81
1285.68	201.01	9430	8413.85
1286.68	200.01	9880	8537.74
1287.68	199.01	9570	8637.51
1288.68	198.01	9075	8695
1289.68	197.01	8960	8960
1290.68	196.01	8805	8805
1291.68	195.01	8545	8545
1292.68	194.01	8535	8535
1293.68	193.01	8425	8425
1294.68	192.01	8910	8910
1295.68	191.01	9030	9030
1296.68	190.01	8660	8660
1297.68	189.01	8970	8970
1298.68	188.01	8425	8425
1299.68	187.01	8350	8350
1300.68	186.01	8580	8580
1301.68	185.01	8420	8420
1302.68	184.01	8710	8710
1303.68	183.01	8360	8360
1304.68	182.01	8400	8400
1305.68	181.01	8360	8360
1306.68	180.01	8325	8325
1307.68	179.01	8605	8605
1308.68	178.01	8350	8350
1309.68	177.01	8460	8460
1310.68	176.01	8185	8185
1311.68	175.01	8535	8535
1312.68	174.01	8385	8385
1313.68	173.01	8575	8575
1314.68	172.01	8350	8205.54
1315.68	171.01	8985	8210.01
1316.68	170.01	9375	8218.6
1317.68	169.01	10495	8234.12
1318.68	168.01	10820	8254.02
1319.68	167.01	9550	8266.05
1320.68	166.01	8555	8270
1321.68	165.01	8080	8080
1322.68	164.01	8085	8085
1323.68	163.01	8055	8055
1324.68	162.01	8195	8195
1325.68	161.01	8010	8010
1326.68	160.01	8325	8325
1327.68	159.01	8050	8050
1328.68	158.01	8505	8505
1329.68	157.01	8665	8665
1330.68	156.01	9420	9420
1331.68	155.01	10010	10010
1332.68	154.01	10355	10355
1333.68	153.01	10275	10275
1334.68	152.01	9825	9825
1335.68	151.01	8760	8760
1336.68	150.01	8110	8110
1337.68	149.01	7990	7990
1338.68	148.01	7975	7975
1339.68	147.01	8185	8185
1340.68	146.01	8065	8065
1341.68	145.01	7995	7995
1342.68	144.01	7735	7735
1343.68	143.01	8060	8060
1344.68	142.01	8125	8125
1345.68	141.01	8075	8075
1346.68	140.01	7775	7775
1347.68	139.01	8200	8200
1348.68	138.01	8375	8375
1349.68	137.01	8405	8405
1350.68	136.01	7965	7965
1351.68	135.01	8270	8270
1352.68	134.01	8495	8495
1353.68	133.01	8435	8435
1354.68	132.01	8355	8355
1355.68	131.01	8255	8255
1356.68	130.01	8260	8260
1357.68	129.01	8005	8005
1358.68	128.01	7865	7865
1359.68	127.01	8365	8365
1360.68	126.01	7940	7940
1361.68	125.01	8410	8410
1362.68	124.01	7965	7965
1363.68	123.01	8285	8285
1364.68	122.01	7785	7785
1365.68	121.01	8050	8050
1366.68	120.01	7980	7980
1367.68	119.01	8190	8190
1368.68	118.01	7990	7990
1369.68	117.01	7520	7520
1370.68	116.01	7820	7820
1371.68	115.01	7620	7620
1372.68	114.01	7995	7995
1373.68	113.01	7955	7955
1374.68	112.01	7685	7685
1375.68	111.01	7670	7670
1376.68	110.01	7485	7485
1377.68	109.01	7830	7830
1378.68	108.01	7635	7635
1379.68	107.01	7870	7870
1380.68	106.01	7950	7860.71
1381.68	105.01	8660	7828.4
1382.68	104.01	9555	7732.51
1383.68	103.01	9915	7607.64
1384.68	102.01	9395	7490.37
1385.68	101.01	8780	7404.81
1386.68	100.01	8265	7343.94
1387.68	99.01	7360	7330
1388.68	98.01	7460	7460
1389.68	97.01	7430	7430
1390.68	96.01	7470	7470
1391.68	95.01	7660	7660
1392.68	94.01	7855	7855
1393.68	93.01	7630	7630
1394.68	92.01	8005	8005
1395.68	91.01	8085	8085
1396.68	90.01	8145	8145
1397.68	89.01	7325	7325
1398.68	88.01	7425	7425
1399.68	87.01	7055	7055
1400.68	86.01	6955	6955
1401.68	85.01	6705	6705
1402.68	84.01	6825	6825
1403.68	83.01	6585	6585
1404.68	82.01	6510	6510
1405.68	81.01	6590	6590
1406.68	80.01	6815	6815
1407.68	79.01	6960	6960
1408.68	78.01	7085	7085
1409.68	77.01	6620	6620
1410.68	76.01	7115	7115
1411.68	75.01	7195	7195
1412.68	74.01	6450	6450
1413.68	73.01	6635	6635
1414.68	72.01	6855	6855
1415.68	71.01	6575	6575
1416.68	70.01	6500	6500
1417.68	69.01	6765	6765
1418.68	68.01	6660	6660
1419.68	67.01	6820	6820
1420.68	66.01	7060	7060
1421.68	65.01	6385	6385
1422.68	64.01	6075	6075
1423.68	63.01	5890	5890
1424.68	62.01	6000	6000
1425.68	61.01	6090	6090
1426.68	60.01	5900	5900
1427.68	59.01	5905	5905
1428.68	58.01	6020	6020
1429.68	57.01	6545	6545
1430.68	56.01	6950	6950
1431.68	55.01	6740	6740
1432.68	54.01	6595	6595
1433.68	53.01	6355	6355
1434.68	52.01	6100	6100
1435.68	51.01	5415	5415
1436.68	50.01	5250	5250
1437.68	49.01	5085	5085
1438.68	48.01	4895	4895
1439.68	47.01	5235	5235
1440.68	46.01	5240	5240
1441.68	45.01	5650	5650
1442.68	44.01	5630	5630
1443.68	43.01	5380	5380
1444.68	42.01	4995	4995
1445.68	41.01	4420	4420
1446.68	40.01	4365	4365
1447.68	39.01	3795	3795
1448.68	38.01	3900	3900
1449.68	37.01	3940	3940
1450.68	36.01	3760	3760
1451.68	35.01	3710	3710
1452.68	34.01	3680	3680
1453.68	33.01	3725	3725
1454.68	32.01	4090	4090
1455.68	31.01	4055	4055
1456.68	30.01	4755	4755
1457.68	29.01	5135	5135
1458.68	28.01	5830	5830
1459.68	27.01	6590	6590
1460.68	26.01	7250	7250
1461.68	25.01	6800	6800
1462.68	24.01	6040	6040
1463.68	23.01	4795	4795
1464.68	22.01	4500	4500
1465.68	21.01	4195	4195
1466.68	20.01	4325	4325
1467.68	19.01	4550	4550
1468.68	18.01	4775	4775
1469.68	17.01	4675	4675
1470.68	16.01	4545	4545
1471.68	15.01	4380	4380
1472.68	14.01	4065	4065
1473.68	13.01	3905	3905
1474.68	12.01	3635	3635
1475.68	11.01	3390	3390
1476.68	10.01	3215	3215
1477.68	9.01	3250	3250
1478.68	8.01	2960	2960
1479.68	7.01	2680	2680
1480.68	6.01	2750	2750
1481.68	5.01	2230	2230
1482.68	4.01	1905	1905
1483.68	3.01	1435	1435
1484.68	2.01	1165	1165
1485.68	1.01	805	805
1486.68	0.01	510	510