File: data/derived_data/xps/20170920_Gr-NH2_for_Radisurf/20170920_xps_survey1.txt
C:\Users\emilbp\PhD\Projects\graphene-production\data\derived_data\xps\20170920_Gr-NH2_for_Radisurf\GrNH2.vms
Survey/2
	Characteristic Energy eV	1486.69	Acquisition Time s	0.2
KE_Survey/2	BE_Survey/2	CPS_Survey/2	Background_Survey/2
136.706	1349.98	51190	51190
137.706	1348.98	51245	51245
138.706	1347.98	50375	50375
139.706	1346.98	50755	50755
140.706	1345.98	50800	50800
141.706	1344.98	51010	51010
142.706	1343.98	50275	50275
143.706	1342.98	49745	49745
144.706	1341.98	50585	50585
145.706	1340.98	50750	50750
146.706	1339.98	50960	50960
147.706	1338.98	50270	50270
148.706	1337.98	50225	50225
149.706	1336.98	50950	50950
150.706	1335.98	50620	50620
151.706	1334.98	51195	51195
152.706	1333.98	50680	50680
153.706	1332.98	50705	50705
154.706	1331.98	50870	50870
155.706	1330.98	50145	50145
156.706	1329.98	50755	50755
157.706	1328.98	50925	50925
158.706	1327.98	50400	50400
159.706	1326.98	50275	50275
160.706	1325.98	51060	51060
161.706	1324.98	50225	50225
162.706	1323.98	51260	51260
163.706	1322.98	50770	50770
164.706	1321.98	49650	49650
165.706	1320.98	51200	51200
166.706	1319.98	51445	51445
167.706	1318.98	51215	51215
168.706	1317.98	50465	50465
169.706	1316.98	50960	50960
170.706	1315.98	51040	51040
171.706	1314.98	50780	50780
172.706	1313.98	51020	51020
173.706	1312.98	50825	50825
174.706	1311.98	51325	51325
175.706	1310.98	50965	50965
176.706	1309.98	51645	51645
177.706	1308.98	51910	51910
178.706	1307.98	51635	51635
179.706	1306.98	51795	51795
180.706	1305.98	52775	52775
181.706	1304.98	54135	54135
182.706	1303.98	54170	54170
183.706	1302.98	53220	53220
184.706	1301.98	52930	52930
185.706	1300.98	53375	53375
186.706	1299.98	53355	53355
187.706	1298.98	53165	53165
188.706	1297.98	52360	52360
189.706	1296.98	52855	52855
190.706	1295.98	52395	52395
191.706	1294.98	53515	53515
192.706	1293.98	53480	53480
193.706	1292.98	53300	53300
194.706	1291.98	53255	53255
195.706	1290.98	53700	53700
196.706	1289.98	54255	54255
197.706	1288.98	53195	53195
198.706	1287.98	53590	53590
199.706	1286.98	54310	54310
200.706	1285.98	54785	54785
201.706	1284.98	54425	54425
202.706	1283.98	54660	54660
203.706	1282.98	54760	54760
204.706	1281.98	54105	54105
205.706	1280.98	55350	55350
206.706	1279.98	54355	54355
207.706	1278.98	55265	55265
208.706	1277.98	55620	55620
209.706	1276.98	54690	54690
210.706	1275.98	55050	55050
211.706	1274.98	56080	56080
212.706	1273.98	55505	55505
213.706	1272.98	55610	55610
214.706	1271.98	55775	55775
215.706	1270.98	56570	56570
216.706	1269.98	56210	56210
217.706	1268.98	56555	56555
218.706	1267.98	56610	56610
219.706	1266.98	56985	56985
220.706	1265.98	57480	57480
221.706	1264.98	57740	57740
222.706	1263.98	57620	57620
223.706	1262.98	57060	57060
224.706	1261.98	57925	57925
225.706	1260.98	57670	57670
226.706	1259.98	58135	58135
227.706	1258.98	57735	57735
228.706	1257.98	58540	58540
229.706	1256.98	58080	58080
230.706	1255.98	58165	58165
231.706	1254.98	59160	59160
232.706	1253.98	59025	59025
233.706	1252.98	59465	59465
234.706	1251.98	59905	59905
235.706	1250.98	60250	60250
236.706	1249.98	60040	60040
237.706	1248.98	60390	60390
238.706	1247.98	61560	61560
239.706	1246.98	61410	61410
240.706	1245.98	61690	61690
241.706	1244.98	61990	61990
242.706	1243.98	62000	62000
243.706	1242.98	62560	62560
244.706	1241.98	61520	61520
245.706	1240.98	62210	62210
246.706	1239.98	62430	62430
247.706	1238.98	62045	62045
248.706	1237.98	62930	62930
249.706	1236.98	62095	62095
250.706	1235.98	61765	61765
251.706	1234.98	62645	62645
252.706	1233.98	63125	63125
253.706	1232.98	64710	64710
254.706	1231.98	65155	65155
255.706	1230.98	66825	66825
256.706	1229.98	67100	67100
257.706	1228.98	68365	68365
258.706	1227.98	68755	68755
259.706	1226.98	68240	68240
260.706	1225.98	68755	68755
261.706	1224.98	69075	69075
262.706	1223.98	68095	68095
263.706	1222.98	69030	69030
264.706	1221.98	67785	67785
265.706	1220.98	66260	66260
266.706	1219.98	64430	64430
267.706	1218.98	64560	64560
268.706	1217.98	62580	62580
269.706	1216.98	60170	60170
270.706	1215.98	59440	59440
271.706	1214.98	57975	57975
272.706	1213.98	55075	55075
273.706	1212.98	52330	52330
274.706	1211.98	51260	51260
275.706	1210.98	49425	49425
276.706	1209.98	47820	47820
277.706	1208.98	46210	46210
278.706	1207.98	45390	45390
279.706	1206.98	43910	43910
280.706	1205.98	43105	43105
281.706	1204.98	42220	42220
282.706	1203.98	41890	41890
283.706	1202.98	42005	42005
284.706	1201.98	41035	41035
285.706	1200.98	41025	41025
286.706	1199.98	41195	41195
287.706	1198.98	41500	41500
288.706	1197.98	40630	40630
289.706	1196.98	41525	41525
290.706	1195.98	41905	41905
291.706	1194.98	41300	41300
292.706	1193.98	41950	41950
293.706	1192.98	42235	42235
294.706	1191.98	41580	41580
295.706	1190.98	42040	42040
296.706	1189.98	41250	41250
297.706	1188.98	42190	42190
298.706	1187.98	41450	41450
299.706	1186.98	40710	40710
300.706	1185.98	41915	41915
301.706	1184.98	41825	41825
302.706	1183.98	41575	41575
303.706	1182.98	42170	42170
304.706	1181.98	42290	42290
305.706	1180.98	42265	42265
306.706	1179.98	41915	41915
307.706	1178.98	42710	42710
308.706	1177.98	42735	42735
309.706	1176.98	43580	43580
310.706	1175.98	42905	42905
311.706	1174.98	43020	43020
312.706	1173.98	42630	42630
313.706	1172.98	43315	43315
314.706	1171.98	43010	43010
315.706	1170.98	42990	42990
316.706	1169.98	42770	42770
317.706	1168.98	42490	42490
318.706	1167.98	42870	42870
319.706	1166.98	43485	43485
320.706	1165.98	42980	42980
321.706	1164.98	44090	44090
322.706	1163.98	43725	43725
323.706	1162.98	43110	43110
324.706	1161.98	43805	43805
325.706	1160.98	44190	44190
326.706	1159.98	43220	43220
327.706	1158.98	43070	43070
328.706	1157.98	44620	44620
329.706	1156.98	43775	43775
330.706	1155.98	44115	44115
331.706	1154.98	44020	44020
332.706	1153.98	44230	44230
333.706	1152.98	44240	44240
334.706	1151.98	44155	44155
335.706	1150.98	44625	44625
336.706	1149.98	44660	44660
337.706	1148.98	45335	45335
338.706	1147.98	44970	44970
339.706	1146.98	44365	44365
340.706	1145.98	44755	44755
341.706	1144.98	44475	44475
342.706	1143.98	44905	44905
343.706	1142.98	45055	45055
344.706	1141.98	45820	45820
345.706	1140.98	45170	45170
346.706	1139.98	45300	45300
347.706	1138.98	45460	45460
348.706	1137.98	45040	45040
349.706	1136.98	45685	45685
350.706	1135.98	45815	45815
351.706	1134.98	45445	45445
352.706	1133.98	45660	45660
353.706	1132.98	45785	45785
354.706	1131.98	46630	46630
355.706	1130.98	46855	46855
356.706	1129.98	46215	46215
357.706	1128.98	46580	46580
358.706	1127.98	47010	47010
359.706	1126.98	46510	46510
360.706	1125.98	46190	46190
361.706	1124.98	46365	46365
362.706	1123.98	46730	46730
363.706	1122.98	46290	46290
364.706	1121.98	46845	46845
365.706	1120.98	47705	47705
366.706	1119.98	46570	46570
367.706	1118.98	46925	46925
368.706	1117.98	46985	46985
369.706	1116.98	46885	46885
370.706	1115.98	46885	46885
371.706	1114.98	48175	48175
372.706	1113.98	47445	47445
373.706	1112.98	47290	47290
374.706	1111.98	47555	47555
375.706	1110.98	47995	47995
376.706	1109.98	47720	47720
377.706	1108.98	47780	47780
378.706	1107.98	47595	47595
379.706	1106.98	48300	48300
380.706	1105.98	48505	48505
381.706	1104.98	48885	48885
382.706	1103.98	47255	47255
383.706	1102.98	47680	47680
384.706	1101.98	48740	48740
385.706	1100.98	47885	47885
386.706	1099.98	48290	48290
387.706	1098.98	49010	49010
388.706	1097.98	48930	48930
389.706	1096.98	48045	48045
390.706	1095.98	48835	48835
391.706	1094.98	48175	48175
392.706	1093.98	48320	48320
393.706	1092.98	48320	48320
394.706	1091.98	48920	48920
395.706	1090.98	48695	48695
396.706	1089.98	49290	49290
397.706	1088.98	48890	48890
398.706	1087.98	48670	48670
399.706	1086.98	49295	49295
400.706	1085.98	48820	48820
401.706	1084.98	49065	49065
402.706	1083.98	50040	50040
403.706	1082.98	49805	49805
404.706	1081.98	49580	49580
405.706	1080.98	50440	50440
406.706	1079.98	49635	49635
407.706	1078.98	49500	49500
408.706	1077.98	50455	50455
409.706	1076.98	49955	49955
410.706	1075.98	50460	50460
411.706	1074.98	50245	50245
412.706	1073.98	50495	50495
413.706	1072.98	50415	50415
414.706	1071.98	50565	50565
415.706	1070.98	50945	50945
416.706	1069.98	50895	50895
417.706	1068.98	50850	50850
418.706	1067.98	50410	50410
419.706	1066.98	51360	51360
420.706	1065.98	51100	51100
421.706	1064.98	51475	51475
422.706	1063.98	51770	51770
423.706	1062.98	51405	51405
424.706	1061.98	51935	51935
425.706	1060.98	51630	51630
426.706	1059.98	51870	51870
427.706	1058.98	52385	52385
428.706	1057.98	53260	53260
429.706	1056.98	51910	51910
430.706	1055.98	52465	52465
431.706	1054.98	52580	52580
432.706	1053.98	52700	52700
433.706	1052.98	51940	51940
434.706	1051.98	53055	53055
435.706	1050.98	52340	52340
436.706	1049.98	52240	52240
437.706	1048.98	52565	52565
438.706	1047.98	53090	53090
439.706	1046.98	52690	52690
440.706	1045.98	53340	53340
441.706	1044.98	54000	54000
442.706	1043.98	54395	54395
443.706	1042.98	53635	53635
444.706	1041.98	54080	54080
445.706	1040.98	53250	53250
446.706	1039.98	53605	53605
447.706	1038.98	54300	54300
448.706	1037.98	54150	54150
449.706	1036.98	54140	54140
450.706	1035.98	54340	54340
451.706	1034.98	54235	54235
452.706	1033.98	53410	53410
453.706	1032.98	54240	54240
454.706	1031.98	55435	55435
455.706	1030.98	54745	54745
456.706	1029.98	54985	54985
457.706	1028.98	55070	55070
458.706	1027.98	55605	55605
459.706	1026.98	55100	55100
460.706	1025.98	55390	55390
461.706	1024.98	55745	55745
462.706	1023.98	56515	56515
463.706	1022.98	57195	57195
464.706	1021.98	56965	56965
465.706	1020.98	56425	56425
466.706	1019.98	55955	55955
467.706	1018.98	57425	57425
468.706	1017.98	57345	57345
469.706	1016.98	56900	56900
470.706	1015.98	57235	57235
471.706	1014.98	57110	57110
472.706	1013.98	57285	57285
473.706	1012.98	57160	57160
474.706	1011.98	56985	56985
475.706	1010.98	58030	58030
476.706	1009.98	57335	57335
477.706	1008.98	57260	57260
478.706	1007.98	57920	57920
479.706	1006.98	58220	58220
480.706	1005.98	59500	59500
481.706	1004.98	60255	60255
482.706	1003.98	59960	59960
483.706	1002.98	60850	60850
484.706	1001.98	61335	61335
485.706	1000.98	62415	62415
486.706	999.984	62305	62305
487.706	998.984	62390	62390
488.706	997.984	61725	61725
489.706	996.984	61340	61340
490.706	995.984	60420	60420
491.706	994.984	60310	60310
492.706	993.984	58340	58340
493.706	992.984	58305	58305
494.706	991.984	58610	58610
495.706	990.984	57140	57140
496.706	989.984	56435	56435
497.706	988.984	56320	56320
498.706	987.984	56340	56340
499.706	986.984	55610	55610
500.706	985.984	55930	55930
501.706	984.984	56940	56940
502.706	983.984	57340	57340
503.706	982.984	58820	58820
504.706	981.984	59930	59930
505.706	980.984	62645	62645
506.706	979.984	64220	64220
507.706	978.984	66975	66975
508.706	977.984	66895	66895
509.706	976.984	69105	69105
510.706	975.984	68010	68010
511.706	974.984	66760	66760
512.706	973.984	65265	65265
513.706	972.984	62645	62645
514.706	971.984	61360	61360
515.706	970.984	58920	58920
516.706	969.984	56920	56920
517.706	968.984	53485	53485
518.706	967.984	50835	50835
519.706	966.984	49025	49025
520.706	965.984	45480	45480
521.706	964.984	43675	43675
522.706	963.984	41880	41880
523.706	962.984	41420	41420
524.706	961.984	42250	42250
525.706	960.984	40270	40270
526.706	959.984	40510	40510
527.706	958.984	40265	40265
528.706	957.984	40930	40930
529.706	956.984	40890	40890
530.706	955.984	39830	39830
531.706	954.984	40395	40395
532.706	953.984	40655	40655
533.706	952.984	40305	40305
534.706	951.984	40745	40745
535.706	950.984	40540	40540
536.706	949.984	40005	40005
537.706	948.984	40420	40420
538.706	947.984	40125	40125
539.706	946.984	40550	40550
540.706	945.984	40645	40645
541.706	944.984	40615	40615
542.706	943.984	40695	40695
543.706	942.984	40970	40970
544.706	941.984	40070	40070
545.706	940.984	40980	40980
546.706	939.984	39735	39735
547.706	938.984	41720	41720
548.706	937.984	41495	41495
549.706	936.984	40645	40645
550.706	935.984	41085	41085
551.706	934.984	41155	41155
552.706	933.984	41445	41445
553.706	932.984	41015	41015
554.706	931.984	41905	41905
555.706	930.984	41185	41185
556.706	929.984	41070	41070
557.706	928.984	41575	41575
558.706	927.984	41170	41170
559.706	926.984	41505	41505
560.706	925.984	41160	41160
561.706	924.984	41305	41305
562.706	923.984	41760	41760
563.706	922.984	41670	41670
564.706	921.984	41920	41920
565.706	920.984	41185	41185
566.706	919.984	42525	42525
567.706	918.984	42150	42150
568.706	917.984	42200	42200
569.706	916.984	41385	41385
570.706	915.984	42300	42300
571.706	914.984	41875	41875
572.706	913.984	42490	42490
573.706	912.984	42235	42235
574.706	911.984	42115	42115
575.706	910.984	42355	42355
576.706	909.984	42080	42080
577.706	908.984	42175	42175
578.706	907.984	42330	42330
579.706	906.984	42515	42515
580.706	905.984	41195	41195
581.706	904.984	41975	41975
582.706	903.984	42890	42890
583.706	902.984	43195	43195
584.706	901.984	42810	42810
585.706	900.984	42645	42645
586.706	899.984	42620	42620
587.706	898.984	42015	42015
588.706	897.984	42630	42630
589.706	896.984	42595	42595
590.706	895.984	42895	42895
591.706	894.984	43420	43420
592.706	893.984	42800	42800
593.706	892.984	43420	43420
594.706	891.984	42485	42485
595.706	890.984	42980	42980
596.706	889.984	43340	43340
597.706	888.984	43450	43450
598.706	887.984	43075	43075
599.706	886.984	42915	42915
600.706	885.984	43440	43440
601.706	884.984	43570	43570
602.706	883.984	43535	43535
603.706	882.984	43445	43445
604.706	881.984	44000	44000
605.706	880.984	43570	43570
606.706	879.984	43870	43870
607.706	878.984	44340	44340
608.706	877.984	44345	44345
609.706	876.984	43710	43710
610.706	875.984	43670	43670
611.706	874.984	43870	43870
612.706	873.984	44180	44180
613.706	872.984	43740	43740
614.706	871.984	43780	43780
615.706	870.984	43335	43335
616.706	869.984	43830	43830
617.706	868.984	43670	43670
618.706	867.984	43645	43645
619.706	866.984	44450	44450
620.706	865.984	44240	44240
621.706	864.984	45210	45210
622.706	863.984	44525	44525
623.706	862.984	45270	45270
624.706	861.984	44415	44415
625.706	860.984	44670	44670
626.706	859.984	45045	45045
627.706	858.984	44885	44885
628.706	857.984	44515	44515
629.706	856.984	44750	44750
630.706	855.984	45625	45625
631.706	854.984	44700	44700
632.706	853.984	45460	45460
633.706	852.984	44810	44810
634.706	851.984	44830	44830
635.706	850.984	45205	45205
636.706	849.984	44590	44590
637.706	848.984	45130	45130
638.706	847.984	44675	44675
639.706	846.984	45115	45115
640.706	845.984	44740	44740
641.706	844.984	44855	44855
642.706	843.984	45660	45660
643.706	842.984	45615	45615
644.706	841.984	45040	45040
645.706	840.984	45850	45850
646.706	839.984	46205	46205
647.706	838.984	45430	45430
648.706	837.984	45900	45900
649.706	836.984	45280	45280
650.706	835.984	45800	45800
651.706	834.984	46070	46070
652.706	833.984	45825	45825
653.706	832.984	45945	45945
654.706	831.984	46030	46030
655.706	830.984	45625	45625
656.706	829.984	45670	45670
657.706	828.984	45860	45860
658.706	827.984	44970	44970
659.706	826.984	45975	45975
660.706	825.984	45130	45130
661.706	824.984	46645	46645
662.706	823.984	46535	46535
663.706	822.984	45710	45710
664.706	821.984	45815	45815
665.706	820.984	46490	46490
666.706	819.984	46450	46450
667.706	818.984	46210	46210
668.706	817.984	46005	46005
669.706	816.984	46185	46185
670.706	815.984	46985	46985
671.706	814.984	46815	46815
672.706	813.984	46890	46890
673.706	812.984	46995	46995
674.706	811.984	46755	46755
675.706	810.984	46990	46990
676.706	809.984	47165	47165
677.706	808.984	47650	47650
678.706	807.984	47900	47900
679.706	806.984	47350	47350
680.706	805.984	47340	47340
681.706	804.984	47180	47180
682.706	803.984	47040	47040
683.706	802.984	47970	47970
684.706	801.984	47555	47555
685.706	800.984	47620	47620
686.706	799.984	47345	47345
687.706	798.984	46845	46845
688.706	797.984	47765	47765
689.706	796.984	48475	48475
690.706	795.984	47400	47400
691.706	794.984	48095	48095
692.706	793.984	48075	48075
693.706	792.984	48020	48020
694.706	791.984	48605	48605
695.706	790.984	47920	47920
696.706	789.984	48455	48455
697.706	788.984	47825	47825
698.706	787.984	48110	48110
699.706	786.984	48390	48390
700.706	785.984	48435	48435
701.706	784.984	47780	47780
702.706	783.984	48290	48290
703.706	782.984	49280	49280
704.706	781.984	48260	48260
705.706	780.984	48350	48350
706.706	779.984	48590	48590
707.706	778.984	49135	49135
708.706	777.984	48805	48805
709.706	776.984	49400	49400
710.706	775.984	49620	49620
711.706	774.984	48660	48660
712.706	773.984	48355	48355
713.706	772.984	49265	49265
714.706	771.984	49375	49375
715.706	770.984	48985	48985
716.706	769.984	49265	49265
717.706	768.984	49200	49200
718.706	767.984	49650	49650
719.706	766.984	48715	48715
720.706	765.984	49740	49740
721.706	764.984	49030	49030
722.706	763.984	49335	49335
723.706	762.984	49295	49295
724.706	761.984	49500	49500
725.706	760.984	50160	50160
726.706	759.984	49435	49435
727.706	758.984	50335	50335
728.706	757.984	50135	50135
729.706	756.984	50140	50140
730.706	755.984	49480	49480
731.706	754.984	50255	50255
732.706	753.984	49765	49765
733.706	752.984	50035	50035
734.706	751.984	49840	49840
735.706	750.984	50395	50395
736.706	749.984	50315	50315
737.706	748.984	50775	50775
738.706	747.984	50830	50830
739.706	746.984	49820	49820
740.706	745.984	50345	50345
741.706	744.984	50080	50080
742.706	743.984	51010	51010
743.706	742.984	51185	51185
744.706	741.984	51040	51040
745.706	740.984	50950	50950
746.706	739.984	51170	51170
747.706	738.984	50045	50045
748.706	737.984	51160	51160
749.706	736.984	51610	51610
750.706	735.984	50755	50755
751.706	734.984	50075	50075
752.706	733.984	51200	51200
753.706	732.984	50835	50835
754.706	731.984	50920	50920
755.706	730.984	50580	50580
756.706	729.984	50660	50660
757.706	728.984	51405	51405
758.706	727.984	51600	51600
759.706	726.984	51620	51620
760.706	725.984	51640	51640
761.706	724.984	50730	50730
762.706	723.984	51675	51675
763.706	722.984	51225	51225
764.706	721.984	52305	52305
765.706	720.984	51410	51410
766.706	719.984	52150	52150
767.706	718.984	52515	52515
768.706	717.984	51455	51455
769.706	716.984	51860	51860
770.706	715.984	51430	51430
771.706	714.984	52900	52900
772.706	713.984	51910	51910
773.706	712.984	52815	52815
774.706	711.984	52700	52700
775.706	710.984	52145	52145
776.706	709.984	52120	52120
777.706	708.984	51440	51440
778.706	707.984	52790	52790
779.706	706.984	52525	52525
780.706	705.984	52015	52015
781.706	704.984	51985	51985
782.706	703.984	53200	53200
783.706	702.984	52865	52865
784.706	701.984	52880	52880
785.706	700.984	53215	53215
786.706	699.984	52310	52310
787.706	698.984	51865	51865
788.706	697.984	52845	52845
789.706	696.984	52065	52065
790.706	695.984	53330	53330
791.706	694.984	52680	52680
792.706	693.984	52300	52300
793.706	692.984	52940	52940
794.706	691.984	52015	52015
795.706	690.984	52860	52860
796.706	689.984	52815	52815
797.706	688.984	53415	53415
798.706	687.984	53605	53605
799.706	686.984	52920	52920
800.706	685.984	53360	53360
801.706	684.984	53270	53270
802.706	683.984	53730	53730
803.706	682.984	54815	54815
804.706	681.984	53130	53130
805.706	680.984	52705	52705
806.706	679.984	53270	53270
807.706	678.984	53725	53725
808.706	677.984	53790	53790
809.706	676.984	53545	53545
810.706	675.984	54660	54660
811.706	674.984	54210	54210
812.706	673.984	53450	53450
813.706	672.984	54300	54300
814.706	671.984	54070	54070
815.706	670.984	53335	53335
816.706	669.984	54365	54365
817.706	668.984	55035	55035
818.706	667.984	55015	55015
819.706	666.984	54400	54400
820.706	665.984	54430	54430
821.706	664.984	53555	53555
822.706	663.984	55020	55020
823.706	662.984	54885	54885
824.706	661.984	54990	54990
825.706	660.984	54710	54710
826.706	659.984	55495	55495
827.706	658.984	54420	54420
828.706	657.984	53975	53975
829.706	656.984	55105	55105
830.706	655.984	55445	55445
831.706	654.984	55310	55310
832.706	653.984	55680	55680
833.706	652.984	55360	55360
834.706	651.984	55455	55455
835.706	650.984	55850	55850
836.706	649.984	55460	55460
837.706	648.984	55300	55300
838.706	647.984	55095	55095
839.706	646.984	54830	54830
840.706	645.984	55880	55880
841.706	644.984	55375	55375
842.706	643.984	56495	56495
843.706	642.984	56540	56540
844.706	641.984	56525	56525
845.706	640.984	56370	56370
846.706	639.984	55670	55670
847.706	638.984	56540	56540
848.706	637.984	55915	55915
849.706	636.984	56375	56375
850.706	635.984	55885	55885
851.706	634.984	55555	55555
852.706	633.984	56085	56085
853.706	632.984	56695	56695
854.706	631.984	55870	55870
855.706	630.984	57140	57140
856.706	629.984	56450	56450
857.706	628.984	57010	57010
858.706	627.984	57105	57105
859.706	626.984	56355	56355
860.706	625.984	57855	57855
861.706	624.984	58140	58140
862.706	623.984	57185	57185
863.706	622.984	58505	58505
864.706	621.984	57025	57025
865.706	620.984	56850	56850
866.706	619.984	56930	56930
867.706	618.984	56820	56820
868.706	617.984	57765	57765
869.706	616.984	57075	57075
870.706	615.984	57380	57380
871.706	614.984	58260	58260
872.706	613.984	57240	57240
873.706	612.984	57415	57415
874.706	611.984	58305	58305
875.706	610.984	57365	57365
876.706	609.984	58480	58480
877.706	608.984	58305	58305
878.706	607.984	57730	57730
879.706	606.984	57610	57610
880.706	605.984	57785	57785
881.706	604.984	58560	58560
882.706	603.984	59085	59085
883.706	602.984	58395	58395
884.706	601.984	58420	58420
885.706	600.984	58615	58615
886.706	599.984	58680	58680
887.706	598.984	59635	59635
888.706	597.984	58835	58835
889.706	596.984	59400	59400
890.706	595.984	58810	58810
891.706	594.984	58795	58795
892.706	593.984	59915	59915
893.706	592.984	58480	58480
894.706	591.984	59755	59755
895.706	590.984	59160	59160
896.706	589.984	58780	58780
897.706	588.984	59910	59910
898.706	587.984	59915	59915
899.706	586.984	60335	60335
900.706	585.984	59920	59920
901.706	584.984	59580	59580
902.706	583.984	60040	60040
903.706	582.984	60735	60735
904.706	581.984	59930	59930
905.706	580.984	60095	60095
906.706	579.984	59875	59875
907.706	578.984	60360	60360
908.706	577.984	60015	60015
909.706	576.984	59755	59755
910.706	575.984	60335	60335
911.706	574.984	59910	59910
912.706	573.984	59910	59910
913.706	572.984	60560	60560
914.706	571.984	59830	59830
915.706	570.984	59775	59775
916.706	569.984	59965	59965
917.706	568.984	60110	60110
918.706	567.984	59425	59425
919.706	566.984	60125	60125
920.706	565.984	60965	60965
921.706	564.984	60835	60835
922.706	563.984	60905	60905
923.706	562.984	61260	61260
924.706	561.984	61110	61110
925.706	560.984	63330	63330
926.706	559.984	62405	62405
927.706	558.984	63990	63990
928.706	557.984	64520	64520
929.706	556.984	64680	64680
930.706	555.984	64895	64895
931.706	554.984	64110	64110
932.706	553.984	63365	63365
933.706	552.984	61895	61895
934.706	551.984	60580	60580
935.706	550.984	59100	59100
936.706	549.984	58590	58590
937.706	548.984	57355	57355
938.706	547.984	56575	56575
939.706	546.984	55070	55070
940.706	545.984	53935	53935
941.706	544.984	52720	52720
942.706	543.984	51050	51050
943.706	542.984	49705	49705
944.706	541.984	47745	47745
945.706	540.984	47665	47665
946.706	539.984	47905	47905
947.706	538.984	48665	47908.8
948.706	537.984	49635	47888.2
949.706	536.984	51475	47834.7
950.706	535.984	55295	47733.3
951.706	534.984	69720	47436.4
952.706	533.984	105380	46641.4
953.706	532.984	168400	44887.5
954.706	531.984	187585	42485.8
955.706	530.984	125850	40790.4
956.706	529.984	67940	40137.5
957.706	528.984	45750	39978.7
958.706	527.984	41135	39945
959.706	526.984	40030	40030
960.706	525.984	39475	39475
961.706	524.984	39300	39300
962.706	523.984	38870	38870
963.706	522.984	38240	38240
964.706	521.984	38675	38675
965.706	520.984	38255	38255
966.706	519.984	38375	38375
967.706	518.984	38855	38855
968.706	517.984	39270	39270
969.706	516.984	38095	38095
970.706	515.984	38240	38240
971.706	514.984	38850	38850
972.706	513.984	38995	38995
973.706	512.984	38425	38425
974.706	511.984	38780	38780
975.706	510.984	38995	38995
976.706	509.984	38635	38635
977.706	508.984	38775	38775
978.706	507.984	38805	38805
979.706	506.984	39340	39340
980.706	505.984	39345	39345
981.706	504.984	38990	38990
982.706	503.984	39635	39635
983.706	502.984	39300	39300
984.706	501.984	38330	38330
985.706	500.984	38610	38610
986.706	499.984	39090	39090
987.706	498.984	39760	39760
988.706	497.984	39935	39935
989.706	496.984	39205	39205
990.706	495.984	40685	40685
991.706	494.984	40185	40185
992.706	493.984	39995	39995
993.706	492.984	39395	39395
994.706	491.984	38590	38590
995.706	490.984	39725	39725
996.706	489.984	38655	38655
997.706	488.984	39700	39700
998.706	487.984	39390	39390
999.706	486.984	39965	39965
1000.71	485.984	39830	39830
1001.71	484.984	39455	39455
1002.71	483.984	39700	39700
1003.71	482.984	39680	39680
1004.71	481.984	40030	40030
1005.71	480.984	40060	40060
1006.71	479.984	39700	39700
1007.71	478.984	40790	40790
1008.71	477.984	39710	39710
1009.71	476.984	38935	38935
1010.71	475.984	40275	40275
1011.71	474.984	40450	40450
1012.71	473.984	40690	40690
1013.71	472.984	40200	40200
1014.71	471.984	39805	39805
1015.71	470.984	39855	39855
1016.71	469.984	39885	39885
1017.71	468.984	40475	40475
1018.71	467.984	40080	40080
1019.71	466.984	40700	40700
1020.71	465.984	40820	40820
1021.71	464.984	40730	40730
1022.71	463.984	41100	41100
1023.71	462.984	40830	40830
1024.71	461.984	40185	40185
1025.71	460.984	40715	40715
1026.71	459.984	41090	41090
1027.71	458.984	41225	41225
1028.71	457.984	41280	41280
1029.71	456.984	40415	40415
1030.71	455.984	40645	40645
1031.71	454.984	41250	41250
1032.71	453.984	41140	41140
1033.71	452.984	41630	41630
1034.71	451.984	41045	41045
1035.71	450.984	41920	41920
1036.71	449.984	41650	41650
1037.71	448.984	41400	41400
1038.71	447.984	41650	41650
1039.71	446.984	41540	41540
1040.71	445.984	41730	41730
1041.71	444.984	41325	41325
1042.71	443.984	41855	41855
1043.71	442.984	41790	41790
1044.71	441.984	42655	42655
1045.71	440.984	42420	42420
1046.71	439.984	42965	42965
1047.71	438.984	42810	42810
1048.71	437.984	42100	42100
1049.71	436.984	42165	42165
1050.71	435.984	42490	42490
1051.71	434.984	41780	41780
1052.71	433.984	42720	42720
1053.71	432.984	43390	43390
1054.71	431.984	42675	42675
1055.71	430.984	42140	42140
1056.71	429.984	41625	41625
1057.71	428.984	41870	41870
1058.71	427.984	42495	42495
1059.71	426.984	42745	42745
1060.71	425.984	42510	42510
1061.71	424.984	43120	43120
1062.71	423.984	43010	43010
1063.71	422.984	42545	42545
1064.71	421.984	43085	43085
1065.71	420.984	42645	42645
1066.71	419.984	43130	43130
1067.71	418.984	42865	42865
1068.71	417.984	42400	42400
1069.71	416.984	42115	42115
1070.71	415.984	42075	42075
1071.71	414.984	43220	43220
1072.71	413.984	42855	42855
1073.71	412.984	42475	42475
1074.71	411.984	42590	42590
1075.71	410.984	42915	42915
1076.71	409.984	42910	42910
1077.71	408.984	43410	43410
1078.71	407.984	43215	43215
1079.71	406.984	44240	44240
1080.71	405.984	43360	43360
1081.71	404.984	43725	43725
1082.71	403.984	44755	44755
1083.71	402.984	44870	44033.5
1084.71	401.984	46655	43961.5
1085.71	400.984	46820	43851.4
1086.71	399.984	47140	43708.7
1087.71	398.984	46520	43585.2
1088.71	397.984	44020	43530
1089.71	396.984	43830	43830
1090.71	395.984	43030	43030
1091.71	394.984	43820	43820
1092.71	393.984	43745	43745
1093.71	392.984	43590	43590
1094.71	391.984	43620	43620
1095.71	390.984	43520	43520
1096.71	389.984	43805	43805
1097.71	388.984	44195	44195
1098.71	387.984	44175	44175
1099.71	386.984	43420	43420
1100.71	385.984	43910	43910
1101.71	384.984	44345	44345
1102.71	383.984	43585	43585
1103.71	382.984	44675	44675
1104.71	381.984	44140	44140
1105.71	380.984	44150	44150
1106.71	379.984	44360	44360
1107.71	378.984	44255	44255
1108.71	377.984	43980	43980
1109.71	376.984	44430	44430
1110.71	375.984	44940	44940
1111.71	374.984	44550	44550
1112.71	373.984	45580	45580
1113.71	372.984	45050	45050
1114.71	371.984	45810	45810
1115.71	370.984	44965	44965
1116.71	369.984	44645	44645
1117.71	368.984	45445	45445
1118.71	367.984	45480	45480
1119.71	366.984	45715	45715
1120.71	365.984	45560	45560
1121.71	364.984	45495	45495
1122.71	363.984	45660	45660
1123.71	362.984	45180	45180
1124.71	361.984	45805	45805
1125.71	360.984	46035	46035
1126.71	359.984	45585	45585
1127.71	358.984	45550	45550
1128.71	357.984	45795	45795
1129.71	356.984	46250	46250
1130.71	355.984	46245	46245
1131.71	354.984	47060	47060
1132.71	353.984	46475	46475
1133.71	352.984	46795	46795
1134.71	351.984	47830	47830
1135.71	350.984	47620	47620
1136.71	349.984	47910	47910
1137.71	348.984	47945	47945
1138.71	347.984	48280	48280
1139.71	346.984	48765	48765
1140.71	345.984	47645	47645
1141.71	344.984	47700	47700
1142.71	343.984	47760	47760
1143.71	342.984	47115	47115
1144.71	341.984	47680	47680
1145.71	340.984	47275	47275
1146.71	339.984	47245	47245
1147.71	338.984	46385	46385
1148.71	337.984	47835	47835
1149.71	336.984	47330	47330
1150.71	335.984	46695	46695
1151.71	334.984	46130	46130
1152.71	333.984	46655	46655
1153.71	332.984	46165	46165
1154.71	331.984	46135	46135
1155.71	330.984	46825	46825
1156.71	329.984	46505	46505
1157.71	328.984	46335	46335
1158.71	327.984	46155	46155
1159.71	326.984	46360	46360
1160.71	325.984	46910	46910
1161.71	324.984	48110	48110
1162.71	323.984	47405	47405
1163.71	322.984	49020	49020
1164.71	321.984	48700	48700
1165.71	320.984	49600	49600
1166.71	319.984	49565	49565
1167.71	318.984	50455	50455
1168.71	317.984	51210	51210
1169.71	316.984	50180	50180
1170.71	315.984	50655	50655
1171.71	314.984	52340	52340
1172.71	313.984	52365	52365
1173.71	312.984	52080	52080
1174.71	311.984	51950	51950
1175.71	310.984	52135	52135
1176.71	309.984	51575	51575
1177.71	308.984	51045	51045
1178.71	307.984	50810	50810
1179.71	306.984	48570	48570
1180.71	305.984	46035	46035
1181.71	304.984	43020	43020
1182.71	303.984	40320	40320
1183.71	302.984	38550	38550
1184.71	301.984	35310	35310
1185.71	300.984	33460	33460
1186.71	299.984	31720	31720
1187.71	298.984	29425	29425
1188.71	297.984	28560	28560
1189.71	296.984	26515	26515
1190.71	295.984	25865	25865
1191.71	294.984	25740	25740
1192.71	293.984	27100	25713.3
1193.71	292.984	27000	25684.5
1194.71	291.984	29430	25611.9
1195.71	290.984	33985	25440.2
1196.71	289.984	40740	25104.7
1197.71	288.984	51170	24521.1
1198.71	287.984	68520	23573.7
1199.71	286.984	110105	21727.7
1200.71	285.984	149070	18797.4
1201.71	284.984	200705	14716.3
1202.71	283.984	206090	9757.58
1203.71	282.984	84045	7107.49
1204.71	281.984	15330	6653.47
1205.71	280.984	8410	6587.93
1206.71	279.984	6845	6575
1207.71	278.984	5695	5695
1208.71	277.984	5220	5220
1209.71	276.984	4945	4945
1210.71	275.984	4885	4885
1211.71	274.984	4735	4735
1212.71	273.984	4655	4655
1213.71	272.984	4960	4960
1214.71	271.984	4995	4995
1215.71	270.984	5085	5085
1216.71	269.984	4980	4980
1217.71	268.984	4905	4905
1218.71	267.984	4530	4530
1219.71	266.984	4565	4565
1220.71	265.984	4490	4490
1221.71	264.984	4650	4650
1222.71	263.984	4360	4360
1223.71	262.984	4190	4190
1224.71	261.984	4215	4215
1225.71	260.984	4375	4375
1226.71	259.984	4575	4575
1227.71	258.984	4415	4415
1228.71	257.984	4425	4425
1229.71	256.984	4305	4305
1230.71	255.984	4490	4490
1231.71	254.984	4310	4310
1232.71	253.984	4180	4180
1233.71	252.984	4400	4400
1234.71	251.984	4280	4280
1235.71	250.984	4180	4180
1236.71	249.984	4300	4300
1237.71	248.984	4600	4600
1238.71	247.984	4490	4490
1239.71	246.984	4290	4290
1240.71	245.984	4460	4460
1241.71	244.984	4265	4265
1242.71	243.984	4415	4415
1243.71	242.984	4335	4335
1244.71	241.984	4320	4320
1245.71	240.984	4235	4235
1246.71	239.984	4200	4200
1247.71	238.984	4490	4490
1248.71	237.984	4155	4155
1249.71	236.984	4540	4540
1250.71	235.984	4370	4370
1251.71	234.984	4545	4545
1252.71	233.984	5065	5065
1253.71	232.984	5120	5120
1254.71	231.984	5575	5575
1255.71	230.984	5430	5430
1256.71	229.984	4840	4840
1257.71	228.984	4760	4760
1258.71	227.984	4330	4330
1259.71	226.984	4435	4435
1260.71	225.984	4440	4440
1261.71	224.984	4475	4475
1262.71	223.984	4460	4460
1263.71	222.984	4255	4255
1264.71	221.984	4060	4060
1265.71	220.984	4270	4270
1266.71	219.984	4255	4255
1267.71	218.984	4000	4000
1268.71	217.984	4150	4150
1269.71	216.984	4310	4310
1270.71	215.984	4225	4225
1271.71	214.984	4265	4265
1272.71	213.984	4065	4065
1273.71	212.984	4110	4110
1274.71	211.984	4355	4355
1275.71	210.984	4140	4140
1276.71	209.984	3930	3930
1277.71	208.984	4185	4185
1278.71	207.984	3925	3925
1279.71	206.984	4030	4030
1280.71	205.984	4080	4080
1281.71	204.984	4385	4385
1282.71	203.984	4110	4110
1283.71	202.984	4270	4108.24
1284.71	201.984	4520	4102.62
1285.71	200.984	5120	4088.8
1286.71	199.984	5420	4068.59
1287.71	198.984	5330	4047.05
1288.71	197.984	4525	4036.63
1289.71	196.984	4640	4028.16
1290.71	195.984	4160	4025
1291.71	194.984	4025	4025
1292.71	193.984	4140	4140
1293.71	192.984	4200	4200
1294.71	191.984	3950	3950
1295.71	190.984	4080	4080
1296.71	189.984	3980	3980
1297.71	188.984	4165	4165
1298.71	187.984	4065	4065
1299.71	186.984	3980	3980
1300.71	185.984	4255	4255
1301.71	184.984	4265	4265
1302.71	183.984	3895	3895
1303.71	182.984	3900	3900
1304.71	181.984	3955	3955
1305.71	180.984	3970	3970
1306.71	179.984	4000	4000
1307.71	178.984	4020	4020
1308.71	177.984	3945	3945
1309.71	176.984	4040	4040
1310.71	175.984	4100	4100
1311.71	174.984	3830	3830
1312.71	173.984	3950	3950
1313.71	172.984	4070	4070
1314.71	171.984	4170	4067.1
1315.71	170.984	4580	4057.78
1316.71	169.984	5115	4036.52
1317.71	168.984	6110	3988.97
1318.71	167.984	6275	3927.85
1319.71	166.984	5120	3885.96
1320.71	165.984	4075	3875
1321.71	164.984	3880	3880
1322.71	163.984	3630	3630
1323.71	162.984	3775	3775
1324.71	161.984	3695	3695
1325.71	160.984	3675	3675
1326.71	159.984	3990	3990
1327.71	158.984	3935	3935
1328.71	157.984	4125	4125
1329.71	156.984	4725	4725
1330.71	155.984	4795	4795
1331.71	154.984	5435	5435
1332.71	153.984	6070	6070
1333.71	152.984	5925	5925
1334.71	151.984	5250	5250
1335.71	150.984	4485	4485
1336.71	149.984	4130	4130
1337.71	148.984	3585	3585
1338.71	147.984	3780	3780
1339.71	146.984	3705	3705
1340.71	145.984	3540	3540
1341.71	144.984	3765	3765
1342.71	143.984	3705	3705
1343.71	142.984	3685	3685
1344.71	141.984	3900	3900
1345.71	140.984	3670	3670
1346.71	139.984	3710	3710
1347.71	138.984	3675	3675
1348.71	137.984	3500	3500
1349.71	136.984	3785	3785
1350.71	135.984	3615	3615
1351.71	134.984	3520	3520
1352.71	133.984	3945	3945
1353.71	132.984	3730	3730
1354.71	131.984	3855	3855
1355.71	130.984	3745	3745
1356.71	129.984	3635	3635
1357.71	128.984	3745	3745
1358.71	127.984	3720	3720
1359.71	126.984	3765	3765
1360.71	125.984	3830	3830
1361.71	124.984	3805	3805
1362.71	123.984	3800	3800
1363.71	122.984	3810	3810
1364.71	121.984	3585	3585
1365.71	120.984	3995	3995
1366.71	119.984	3630	3630
1367.71	118.984	3895	3895
1368.71	117.984	3885	3885
1369.71	116.984	3775	3775
1370.71	115.984	3815	3815
1371.71	114.984	3675	3675
1372.71	113.984	3785	3785
1373.71	112.984	3840	3840
1374.71	111.984	3530	3530
1375.71	110.984	3530	3530
1376.71	109.984	3685	3685
1377.71	108.984	3775	3775
1378.71	107.984	3770	3770
1379.71	106.984	3685	3685
1380.71	105.984	4105	3681.57
1381.71	104.984	4800	3674.16
1382.71	103.984	5165	3662.63
1383.71	102.984	5655	3646.57
1384.71	101.984	5660	3628.96
1385.71	100.984	4875	3616.36
1386.71	99.984	4075	3610.42
1387.71	98.984	3610	3610
1388.71	97.984	3570	3570
1389.71	96.984	3645	3645
1390.71	95.984	3725	3725
1391.71	94.984	3870	3870
1392.71	93.984	3575	3575
1393.71	92.984	3720	3720
1394.71	91.984	3845	3845
1395.71	90.984	3925	3925
1396.71	89.984	3830	3830
1397.71	88.984	3770	3770
1398.71	87.984	3465	3465
1399.71	86.984	3695	3695
1400.71	85.984	3630	3630
1401.71	84.984	3525	3525
1402.71	83.984	3700	3700
1403.71	82.984	3650	3650
1404.71	81.984	3600	3600
1405.71	80.984	3610	3610
1406.71	79.984	3685	3685
1407.71	78.984	3645	3645
1408.71	77.984	3650	3650
1409.71	76.984	3625	3625
1410.71	75.984	3560	3560
1411.71	74.984	3405	3405
1412.71	73.984	3725	3725
1413.71	72.984	3750	3750
1414.71	71.984	3645	3645
1415.71	70.984	3600	3600
1416.71	69.984	3770	3770
1417.71	68.984	3590	3590
1418.71	67.984	3670	3670
1419.71	66.984	3615	3615
1420.71	65.984	3895	3895
1421.71	64.984	3650	3650
1422.71	63.984	3500	3500
1423.71	62.984	3755	3755
1424.71	61.984	3530	3530
1425.71	60.984	3780	3780
1426.71	59.984	3810	3810
1427.71	58.984	3840	3840
1428.71	57.984	3760	3760
1429.71	56.984	4000	4000
1430.71	55.984	3915	3915
1431.71	54.984	3875	3875
1432.71	53.984	3935	3935
1433.71	52.984	3980	3980
1434.71	51.984	4045	4045
1435.71	50.984	4130	4130
1436.71	49.984	3915	3915
1437.71	48.984	4050	4050
1438.71	47.984	3940	3940
1439.71	46.984	4035	4035
1440.71	45.984	3945	3945
1441.71	44.984	3855	3855
1442.71	43.984	3905	3905
1443.71	42.984	3735	3735
1444.71	41.984	3750	3750
1445.71	40.984	3525	3525
1446.71	39.984	3565	3565
1447.71	38.984	3310	3310
1448.71	37.984	3455	3455
1449.71	36.984	3485	3485
1450.71	35.984	3310	3310
1451.71	34.984	3320	3320
1452.71	33.984	3210	3210
1453.71	32.984	3355	3355
1454.71	31.984	3580	3580
1455.71	30.984	3785	3785
1456.71	29.984	4235	4235
1457.71	28.984	4680	4680
1458.71	27.984	5340	5340
1459.71	26.984	6070	6070
1460.71	25.984	6280	6280
1461.71	24.984	5935	5935
1462.71	23.984	5025	5025
1463.71	22.984	3980	3980
1464.71	21.984	3600	3600
1465.71	20.984	3805	3805
1466.71	19.984	4320	4320
1467.71	18.984	4670	4670
1468.71	17.984	4505	4505
1469.71	16.984	4390	4390
1470.71	15.984	4345	4345
1471.71	14.984	4050	4050
1472.71	13.984	3855	3855
1473.71	12.984	3650	3650
1474.71	11.984	3520	3520
1475.71	10.984	3225	3225
1476.71	9.984	3055	3055
1477.71	8.984	2750	2750
1478.71	7.984	2485	2485
1479.71	6.984	2260	2260
1480.71	5.984	2080	2080
1481.71	4.984	1760	1760
1482.71	3.984	1215	1215
1483.71	2.984	780	780
1484.71	1.984	410	410
1485.71	0.984	220	220
1486.71	-0.016	165	165