File: data/derived_data/raman/20171207_GrNH2_from_20171130/20171207_GrNH2_map_1/2D FWHM.txt
#XList		#YList		#IList
-1.838599	-0.760625	89.6648
-1.638599	-0.760625	81.7647
-1.438599	-0.760625	86.9794
-1.238599	-0.760625	90.0025
-1.038599	-0.760625	85.7591
-0.838599	-0.760625	79.2714
-0.638599	-0.760625	82.8019
-0.438599	-0.760625	75.1296
-0.238599	-0.760625	77.4262
-0.038599	-0.760625	77.8089
0.161401	-0.760625	83.9176
0.361401	-0.760625	86.8585
0.561401	-0.760625	94.3524
0.761401	-0.760625	93.4814
0.961401	-0.760625	105.619
1.161401	-0.760625	125.096
1.361401	-0.760625	103.97
1.561401	-0.760625	106.646
1.761401	-0.760625	98.3265
1.961401	-0.760625	99.8672
2.161401	-0.760625	104.888
-1.838599	-0.560625	90.3414
-1.638599	-0.560625	76.7108
-1.438599	-0.560625	80.3167
-1.238599	-0.560625	76.5285
-1.038599	-0.560625	75.8802
-0.838599	-0.560625	82.215
-0.638599	-0.560625	84.7186
-0.438599	-0.560625	83.0899
-0.238599	-0.560625	73.8975
-0.038599	-0.560625	72.4454
0.161401	-0.560625	78.2999
0.361401	-0.560625	80.6145
0.561401	-0.560625	84.9435
0.761401	-0.560625	90.0312
0.961401	-0.560625	93.5145
1.161401	-0.560625	122.202
1.361401	-0.560625	126.729
1.561401	-0.560625	112.397
1.761401	-0.560625	130.067
1.961401	-0.560625	84.6912
2.161401	-0.560625	92.3045
-1.838599	-0.360625	80.5164
-1.638599	-0.360625	76.0571
-1.438599	-0.360625	80.6514
-1.238599	-0.360625	77.2028
-1.038599	-0.360625	83.088
-0.838599	-0.360625	80.3004
-0.638599	-0.360625	82.6381
-0.438599	-0.360625	83.979
-0.238599	-0.360625	80.6229
-0.038599	-0.360625	73.7185
0.161401	-0.360625	77.9872
0.361401	-0.360625	79.6831
0.561401	-0.360625	78.9639
0.761401	-0.360625	78.6008
0.961401	-0.360625	90.2499
1.161401	-0.360625	108.413
1.361401	-0.360625	121.983
1.561401	-0.360625	116.539
1.761401	-0.360625	84.2883
1.961401	-0.360625	83.2553
2.161401	-0.360625	87.2049
-1.838599	-0.160625	88.6487
-1.638599	-0.160625	82.285
-1.438599	-0.160625	82.8642
-1.238599	-0.160625	82.4429
-1.038599	-0.160625	88.3053
-0.838599	-0.160625	84.0468
-0.638599	-0.160625	81.7685
-0.438599	-0.160625	86.7113
-0.238599	-0.160625	81.3553
-0.038599	-0.160625	77.2257
0.161401	-0.160625	74.2197
0.361401	-0.160625	80.3082
0.561401	-0.160625	80.7512
0.761401	-0.160625	80.4146
0.961401	-0.160625	85.9162
1.161401	-0.160625	98.9209
1.361401	-0.160625	112.054
1.561401	-0.160625	96.5038
1.761401	-0.160625	95.9951
1.961401	-0.160625	103.737
2.161401	-0.160625	93.3524
-1.838599	0.039375	90.5113
-1.638599	0.039375	81.0443
-1.438599	0.039375	82.1997
-1.238599	0.039375	77.7746
-1.038599	0.039375	82.5533
-0.838599	0.039375	83.0058
-0.638599	0.039375	80.4455
-0.438599	0.039375	86.2014
-0.238599	0.039375	85.2755
-0.038599	0.039375	78.4134
0.161401	0.039375	74.5225
0.361401	0.039375	79.4266
0.561401	0.039375	77.4753
0.761401	0.039375	80.8673
0.961401	0.039375	81.4743
1.161401	0.039375	104.936
1.361401	0.039375	122.481
1.561401	0.039375	82.6328
1.761401	0.039375	88.9771
1.961401	0.039375	93.3941
2.161401	0.039375	85.8096
-1.838599	0.239375	86.2462
-1.638599	0.239375	75.9816
-1.438599	0.239375	78.7166
-1.238599	0.239375	77.4005
-1.038599	0.239375	79.0014
-0.838599	0.239375	80.5615
-0.638599	0.239375	85.4761
-0.438599	0.239375	80.5144
-0.238599	0.239375	91.1646
-0.038599	0.239375	89.637
0.161401	0.239375	79.9545
0.361401	0.239375	76.9765
0.561401	0.239375	82.8068
0.761401	0.239375	89.7046
0.961401	0.239375	84.2592
1.161401	0.239375	102.032
1.361401	0.239375	102.484
1.561401	0.239375	92.846
1.761401	0.239375	85.9217
1.961401	0.239375	93.9352
2.161401	0.239375	98.434
-1.838599	0.439375	86.4363
-1.638599	0.439375	70.2072
-1.438599	0.439375	73.9816
-1.238599	0.439375	78.5503
-1.038599	0.439375	78.1277
-0.838599	0.439375	77.5768
-0.638599	0.439375	79.1946
-0.438599	0.439375	85.005
-0.238599	0.439375	85.2969
-0.038599	0.439375	92.4378
0.161401	0.439375	106.582
0.361401	0.439375	97.0967
0.561401	0.439375	98.867
0.761401	0.439375	82.4738
0.961401	0.439375	90.0497
1.161401	0.439375	106.358
1.361401	0.439375	111.688
1.561401	0.439375	97.3546
1.761401	0.439375	87.2524
1.961401	0.439375	92.0025
2.161401	0.439375	102.312
-1.838599	0.639375	77.0385
-1.638599	0.639375	78.8509
-1.438599	0.639375	77.657
-1.238599	0.639375	79.6187
-1.038599	0.639375	83.8998
-0.838599	0.639375	78.3789
-0.638599	0.639375	74.6222
-0.438599	0.639375	84.8197
-0.238599	0.639375	97.1618
-0.038599	0.639375	103.689
0.161401	0.639375	103.037
0.361401	0.639375	107.92
0.561401	0.639375	109.279
0.761401	0.639375	96.5517
0.961401	0.639375	93.5584
1.161401	0.639375	122.653
1.361401	0.639375	105.219
1.561401	0.639375	92.2787
1.761401	0.639375	85.156
1.961401	0.639375	92.6431
2.161401	0.639375	87.3756
-1.838599	0.839375	81.2252
-1.638599	0.839375	65.3371
-1.438599	0.839375	72.992
-1.238599	0.839375	76.3918
-1.038599	0.839375	80.4021
-0.838599	0.839375	86.3762
-0.638599	0.839375	87.7649
-0.438599	0.839375	89.8185
-0.238599	0.839375	92.2745
-0.038599	0.839375	81.7026
0.161401	0.839375	99.7223
0.361401	0.839375	96.078
0.561401	0.839375	95.0416
0.761401	0.839375	96.2093
0.961401	0.839375	106.473
1.161401	0.839375	102.382
1.361401	0.839375	104.132
1.561401	0.839375	110.089
1.761401	0.839375	104.223
1.961401	0.839375	97.272
2.161401	0.839375	94.1569
-1.838599	1.039375	51.6799
-1.638599	1.039375	61.641
-1.438599	1.039375	71.4942
-1.238599	1.039375	77.8907
-1.038599	1.039375	86.4719
-0.838599	1.039375	92.424
-0.638599	1.039375	86.3114
-0.438599	1.039375	86.7936
-0.238599	1.039375	93.3193
-0.038599	1.039375	109.251
0.161401	1.039375	83.7246
0.361401	1.039375	70.3596
0.561401	1.039375	133.243
0.761401	1.039375	111.568
0.961401	1.039375	95.7748
1.161401	1.039375	118.516
1.361401	1.039375	156.364
1.561401	1.039375	311.607
1.761401	1.039375	149.456
1.961401	1.039375	102.639
2.161401	1.039375	122.926
-1.838599	1.239375	55.4638
-1.638599	1.239375	43.6931
-1.438599	1.239375	69.263
-1.238599	1.239375	75.2298
-1.038599	1.239375	85.6585
-0.838599	1.239375	89.5399
-0.638599	1.239375	83.7685
-0.438599	1.239375	73.9174
-0.238599	1.239375	93.8785
-0.038599	1.239375	108.444
0.161401	1.239375	171.124
0.361401	1.239375	130.089
0.561401	1.239375	77.0461
0.761401	1.239375	65.5547
0.961401	1.239375	71.57
1.161401	1.239375	87.973
1.361401	1.239375	197.184
1.561401	1.239375	49.3604
1.761401	1.239375	54.9008
1.961401	1.239375	116.826
2.161401	1.239375	271.31
-1.838599	1.439375	26.7452
-1.638599	1.439375	93.6435
-1.438599	1.439375	57.0271
-1.238599	1.439375	70.2956
-1.038599	1.439375	54.0835
-0.838599	1.439375	72.3324
-0.638599	1.439375	71.9693
-0.438599	1.439375	144.726
-0.238599	1.439375	85.7702
-0.038599	1.439375	1.308779
0.161401	1.439375	454.332
0.361401	1.439375	14.1244
0.561401	1.439375	54.4573
0.761401	1.439375	24.3562
0.961401	1.439375	184.849
1.161401	1.439375	302.875
1.361401	1.439375	72.4256
1.561401	1.439375	257.319
1.761401	1.439375	92.6928
1.961401	1.439375	125.191
2.161401	1.439375	188.519
-1.838599	1.639375	25.7974
-1.638599	1.639375	71.9709
-1.438599	1.639375	164.573
-1.238599	1.639375	40.6477
-1.038599	1.639375	79.675
-0.838599	1.639375	106.544
-0.638599	1.639375	123.861
-0.438599	1.639375	515.275
-0.238599	1.639375	374.578
-0.038599	1.639375	585.054
0.161401	1.639375	2595.04
0.361401	1.639375	14.633
0.561401	1.639375	153.993
0.761401	1.639375	942.613
0.961401	1.639375	134.039
1.161401	1.639375	149.3
1.361401	1.639375	113.224
1.561401	1.639375	80.4368
1.761401	1.639375	53.2024
1.961401	1.639375	97.9065
2.161401	1.639375	116.33
-1.838599	1.839375	1163.55
-1.638599	1.839375	151.852
-1.438599	1.839375	19.4533
-1.238599	1.839375	131.934
-1.038599	1.839375	36.7506
-0.838599	1.839375	360.402
-0.638599	1.839375	168.719
-0.438599	1.839375	526.408
-0.238599	1.839375	1345.46
-0.038599	1.839375	57.9466
0.161401	1.839375	88.2933
0.361401	1.839375	38.6298
0.561401	1.839375	248.05
0.761401	1.839375	94.7378
0.961401	1.839375	117.117
1.161401	1.839375	125.968
1.361401	1.839375	127.382
1.561401	1.839375	98.5428
1.761401	1.839375	120.138
1.961401	1.839375	137.802
2.161401	1.839375	55.0224
-1.838599	2.039375	35.2017
-1.638599	2.039375	841.448
-1.438599	2.039375	2.446048
-1.238599	2.039375	443.43
-1.038599	2.039375	16.945
-0.838599	2.039375	4.718590
-0.638599	2.039375	454.638
-0.438599	2.039375	0.639804
-0.238599	2.039375	382.238
-0.038599	2.039375	12.248
0.161401	2.039375	7.891399
0.361401	2.039375	520.893
0.561401	2.039375	45.9363
0.761401	2.039375	130.08
0.961401	2.039375	103.136
1.161401	2.039375	135.139
1.361401	2.039375	111.609
1.561401	2.039375	98.7137
1.761401	2.039375	98.6357
1.961401	2.039375	102.675
2.161401	2.039375	70.6117
-1.838599	2.239375	9.172050
-1.638599	2.239375	1322.13
-1.438599	2.239375	72.5462
-1.238599	2.239375	1604.86
-1.038599	2.239375	2595.04
-0.838599	2.239375	88.697
-0.638599	2.239375	0.639804
-0.438599	2.239375	1330.42
-0.238599	2.239375	350.38
-0.038599	2.239375	203.668
0.161401	2.239375	191.858
0.361401	2.239375	180.02
0.561401	2.239375	99.2831
0.761401	2.239375	113.965
0.961401	2.239375	110.095
1.161401	2.239375	117.13
1.361401	2.239375	105.026
1.561401	2.239375	131.846
1.761401	2.239375	86.6298
1.961401	2.239375	87.311
2.161401	2.239375	74.1059