File: data/derived_data/raman/20171207_GrNH2_from_20171130/20171207_GrNH2_map_1/2D int.txt
#XList		#YList		#IList
-1.838599	-0.760625	71.3053
-1.638599	-0.760625	112.429
-1.438599	-0.760625	130.44
-1.238599	-0.760625	125.177
-1.038599	-0.760625	124.485
-0.838599	-0.760625	138.135
-0.638599	-0.760625	138.447
-0.438599	-0.760625	155.136
-0.238599	-0.760625	176.354
-0.038599	-0.760625	182.387
0.161401	-0.760625	178.604
0.361401	-0.760625	172.582
0.561401	-0.760625	173.936
0.761401	-0.760625	146.387
0.961401	-0.760625	90.2731
1.161401	-0.760625	69.5059
1.361401	-0.760625	80.8108
1.561401	-0.760625	73.0326
1.761401	-0.760625	34.0492
1.961401	-0.760625	26.873
2.161401	-0.760625	55.4976
-1.838599	-0.560625	99.9468
-1.638599	-0.560625	139.193
-1.438599	-0.560625	143.437
-1.238599	-0.560625	147.647
-1.038599	-0.560625	137.897
-0.838599	-0.560625	123.5
-0.638599	-0.560625	119.74
-0.438599	-0.560625	128.942
-0.238599	-0.560625	155.27
-0.038599	-0.560625	182.68
0.161401	-0.560625	193.497
0.361401	-0.560625	201.402
0.561401	-0.560625	193.305
0.761401	-0.560625	157.377
0.961401	-0.560625	102.741
1.161401	-0.560625	71.7634
1.361401	-0.560625	60.2851
1.561401	-0.560625	51.8712
1.761401	-0.560625	28.8797
1.961401	-0.560625	23.6544
2.161401	-0.560625	48.7695
-1.838599	-0.360625	117.522
-1.638599	-0.360625	161.426
-1.438599	-0.360625	145.498
-1.238599	-0.360625	143.622
-1.038599	-0.360625	144.348
-0.838599	-0.360625	124.99
-0.638599	-0.360625	115.143
-0.438599	-0.360625	118.724
-0.238599	-0.360625	152.096
-0.038599	-0.360625	179.282
0.161401	-0.360625	189.799
0.361401	-0.360625	201.494
0.561401	-0.360625	198.071
0.761401	-0.360625	174.361
0.961401	-0.360625	129.18
1.161401	-0.360625	77.7928
1.361401	-0.360625	51.8218
1.561401	-0.360625	37.4598
1.761401	-0.360625	20.639
1.961401	-0.360625	15.9445
2.161401	-0.360625	25.5636
-1.838599	-0.160625	92.0751
-1.638599	-0.160625	152.184
-1.438599	-0.160625	130.606
-1.238599	-0.160625	129.294
-1.038599	-0.160625	128.548
-0.838599	-0.160625	125.467
-0.638599	-0.160625	120.05
-0.438599	-0.160625	118.43
-0.238599	-0.160625	134.267
-0.038599	-0.160625	172.925
0.161401	-0.160625	198.311
0.361401	-0.160625	200.608
0.561401	-0.160625	198.402
0.761401	-0.160625	177.684
0.961401	-0.160625	133.275
1.161401	-0.160625	79.29
1.361401	-0.160625	43.8322
1.561401	-0.160625	32.6387
1.761401	-0.160625	28.2948
1.961401	-0.160625	20.3494
2.161401	-0.160625	16.6871
-1.838599	0.039375	55.3708
-1.638599	0.039375	108.531
-1.438599	0.039375	109.198
-1.238599	0.039375	115.697
-1.038599	0.039375	111.368
-0.838599	0.039375	126.953
-0.638599	0.039375	120.869
-0.438599	0.039375	115.071
-0.238599	0.039375	123.163
-0.038599	0.039375	152.82
0.161401	0.039375	176.349
0.361401	0.039375	182.471
0.561401	0.039375	180.962
0.761401	0.039375	162.053
0.961401	0.039375	134.83
1.161401	0.039375	85.0174
1.361401	0.039375	51.9411
1.561401	0.039375	61.4089
1.761401	0.039375	81.1688
1.961401	0.039375	61.8133
2.161401	0.039375	36.632
-1.838599	0.239375	39.572
-1.638599	0.239375	98.3975
-1.438599	0.239375	121.823
-1.238599	0.239375	121.987
-1.038599	0.239375	131.153
-0.838599	0.239375	142.777
-0.638599	0.239375	134.77
-0.438599	0.239375	125.697
-0.238599	0.239375	119.707
-0.038599	0.239375	121.817
0.161401	0.239375	134.438
0.361401	0.239375	137.513
0.561401	0.239375	149.792
0.761401	0.239375	142.377
0.961401	0.239375	122.99
1.161401	0.239375	86.4794
1.361401	0.239375	63.9424
1.561401	0.239375	103.224
1.761401	0.239375	151.657
1.961401	0.239375	132.592
2.161401	0.239375	79.4633
-1.838599	0.439375	27.083
-1.638599	0.439375	83.6855
-1.438599	0.439375	124.919
-1.238599	0.439375	129.211
-1.038599	0.439375	132.011
-0.838599	0.439375	142.88
-0.638599	0.439375	148.291
-0.438599	0.439375	128.797
-0.238599	0.439375	117.174
-0.038599	0.439375	102.777
0.161401	0.439375	91.5662
0.361401	0.439375	85.3272
0.561401	0.439375	97.6953
0.761401	0.439375	116.928
0.961401	0.439375	105.573
1.161401	0.439375	78.4433
1.361401	0.439375	55.0116
1.561401	0.439375	75.3366
1.761401	0.439375	138.369
1.961401	0.439375	149.715
2.161401	0.439375	110.457
-1.838599	0.639375	15.2147
-1.638599	0.639375	63.7516
-1.438599	0.639375	108.461
-1.238599	0.639375	121.094
-1.038599	0.639375	123.571
-0.838599	0.639375	122.674
-0.638599	0.639375	126.151
-0.438599	0.639375	108.703
-0.238599	0.639375	93.0372
-0.038599	0.639375	82.1295
0.161401	0.639375	71.5649
0.361401	0.639375	55.2416
0.561401	0.639375	52.7047
0.761401	0.639375	66.9204
0.961401	0.639375	73.0385
1.161401	0.639375	61.5717
1.361401	0.639375	35.8041
1.561401	0.639375	28.5108
1.761401	0.639375	50.5171
1.961401	0.639375	69.6102
2.161401	0.639375	68.7104
-1.838599	0.839375	6.915318
-1.638599	0.839375	42.9142
-1.438599	0.839375	91.0507
-1.238599	0.839375	103.118
-1.038599	0.839375	104.72
-0.838599	0.839375	99.6613
-0.638599	0.839375	101.536
-0.438599	0.839375	89.2747
-0.238599	0.839375	70.3833
-0.038599	0.839375	56.7761
0.161401	0.839375	42.8333
0.361401	0.839375	29.8097
0.561401	0.839375	18.379
0.761401	0.839375	20.5922
0.961401	0.839375	25.1383
1.161401	0.839375	31.4648
1.361401	0.839375	21.2631
1.561401	0.839375	10.6339
1.761401	0.839375	11.2487
1.961401	0.839375	17.5739
2.161401	0.839375	22.2101
-1.838599	1.039375	2.513219
-1.638599	1.039375	19.002
-1.438599	1.039375	61.6402
-1.238599	1.039375	80.0658
-1.038599	1.039375	84.0454
-0.838599	1.039375	75.7569
-0.638599	1.039375	68.542
-0.438599	1.039375	60.1703
-0.238599	1.039375	41.0594
-0.038599	1.039375	21.6065
0.161401	1.039375	14.5567
0.361401	1.039375	10.9133
0.561401	1.039375	4.377892
0.761401	1.039375	4.216054
0.961401	1.039375	5.309965
1.161401	1.039375	8.171942
1.361401	1.039375	7.352987
1.561401	1.039375	4.108701
1.761401	1.039375	5.001427
1.961401	1.039375	5.502538
2.161401	1.039375	6.542322
-1.838599	1.239375	2.225930
-1.638599	1.239375	7.663799
-1.438599	1.239375	27.9853
-1.238599	1.239375	59.0114
-1.038599	1.239375	62.5312
-0.838599	1.239375	49.9787
-0.638599	1.239375	36.6633
-0.438599	1.239375	25.0062
-0.238599	1.239375	13.6694
-0.038599	1.239375	6.754030
0.161401	1.239375	4.296094
0.361401	1.239375	2.003907
0.561401	1.239375	2.891072
0.761401	1.239375	3.036118
0.961401	1.239375	4.258993
1.161401	1.239375	4.393804
1.361401	1.239375	4.028014
1.561401	1.239375	4.708361
1.761401	1.239375	4.936331
1.961401	1.239375	3.582000
2.161401	1.239375	2.946846
-1.838599	1.439375	-2.509099
-1.638599	1.439375	3.689956
-1.438599	1.439375	8.859026
-1.238599	1.439375	20.5377
-1.038599	1.439375	30.2992
-0.838599	1.439375	21.7729
-0.638599	1.439375	12.7491
-0.438599	1.439375	6.310208
-0.238599	1.439375	4.907349
-0.038599	1.439375	4.832999
0.161401	1.439375	1.767562
0.361401	1.439375	4.759826
0.561401	1.439375	2.955855
0.761401	1.439375	4.524408
0.961401	1.439375	4.375031
1.161401	1.439375	3.192758
1.361401	1.439375	4.939958
1.561401	1.439375	3.910326
1.761401	1.439375	4.563741
1.961401	1.439375	3.517983
2.161401	1.439375	3.135416
-1.838599	1.639375	1.890012
-1.638599	1.639375	1.373199
-1.438599	1.639375	2.405735
-1.238599	1.639375	6.357871
-1.038599	1.639375	8.283228
-0.838599	1.639375	3.934879
-0.638599	1.639375	4.503693
-0.438599	1.639375	2.876486
-0.238599	1.639375	2.203336
-0.038599	1.639375	1.978443
0.161401	1.639375	0.551889
0.361401	1.639375	3.025451
0.561401	1.639375	1.422390
0.761401	1.639375	1.741001
0.961401	1.639375	4.184184
1.161401	1.639375	6.798209
1.361401	1.639375	7.059642
1.561401	1.639375	6.609220
1.761401	1.639375	6.617525
1.961401	1.639375	5.283093
2.161401	1.639375	3.551792
-1.838599	1.839375	0.968501
-1.638599	1.839375	3.122352
-1.438599	1.839375	4.819335
-1.238599	1.839375	1.634702
-1.038599	1.839375	4.668583
-0.838599	1.839375	0.833151
-0.638599	1.839375	3.120515
-0.438599	1.839375	1.305759
-0.238599	1.839375	1.643094
-0.038599	1.839375	1.548262
0.161401	1.839375	0.603999
0.361401	1.839375	1.288913
0.561401	1.839375	3.077649
0.761401	1.839375	7.834391
0.961401	1.839375	9.361420
1.161401	1.839375	14.6156
1.361401	1.839375	11.502
1.561401	1.839375	10.9693
1.761401	1.839375	6.678514
1.961401	1.839375	6.235380
2.161401	1.839375	7.165073
-1.838599	2.039375	1.661688
-1.638599	2.039375	1.011531
-1.438599	2.039375	12.7896
-1.238599	2.039375	0.776812
-1.038599	2.039375	2.849475
-0.838599	2.039375	10.0023
-0.638599	2.039375	2.045573
-0.438599	2.039375	-6.842483
-0.238599	2.039375	2.039701
-0.038599	2.039375	0.598112
0.161401	2.039375	-1.523637
0.361401	2.039375	2.426221
0.561401	2.039375	6.611396
0.761401	2.039375	10.4678
0.961401	2.039375	28.7241
1.161401	2.039375	40.9335
1.361401	2.039375	38.515
1.561401	2.039375	17.197
1.761401	2.039375	14.3505
1.961401	2.039375	10.2704
2.161401	2.039375	11.1142
-1.838599	2.239375	4.283049
-1.638599	2.239375	1.138330
-1.438599	2.239375	2.903679
-1.238599	2.239375	1.540863
-1.038599	2.239375	0.888313
-0.838599	2.239375	1.214815
-0.638599	2.239375	6.036744
-0.438599	2.239375	1.313256
-0.238599	2.239375	1.486384
-0.038599	2.239375	1.242316
0.161401	2.239375	1.136141
0.361401	2.239375	4.437019
0.561401	2.239375	9.207159
0.761401	2.239375	22.759
0.961401	2.239375	54.7411
1.161401	2.239375	91.2131
1.361401	2.239375	88.2152
1.561401	2.239375	54.6853
1.761401	2.239375	26.2825
1.961401	2.239375	20.965
2.161401	2.239375	18.3014