File: data/derived_data/raman/20171207_GrNH2_from_20171130/20171207_GrNH2_map_1/2D pos.txt
#XList		#YList		#IList
-1.838599	-0.760625	2700.56
-1.638599	-0.760625	2702.83
-1.438599	-0.760625	2703.03
-1.238599	-0.760625	2702.96
-1.038599	-0.760625	2703.51
-0.838599	-0.760625	2705.14
-0.638599	-0.760625	2705.77
-0.438599	-0.760625	2706.6
-0.238599	-0.760625	2708.95
-0.038599	-0.760625	2707.04
0.161401	-0.760625	2705.55
0.361401	-0.760625	2704.04
0.561401	-0.760625	2701.46
0.761401	-0.760625	2700.65
0.961401	-0.760625	2697.44
1.161401	-0.760625	2693.82
1.361401	-0.760625	2695.02
1.561401	-0.760625	2694
1.761401	-0.760625	2698.6
1.961401	-0.760625	2700.61
2.161401	-0.760625	2703.14
-1.838599	-0.560625	2698.85
-1.638599	-0.560625	2701.59
-1.438599	-0.560625	2703.59
-1.238599	-0.560625	2703.47
-1.038599	-0.560625	2703.96
-0.838599	-0.560625	2704.57
-0.638599	-0.560625	2704.23
-0.438599	-0.560625	2704.15
-0.238599	-0.560625	2706.48
-0.038599	-0.560625	2708.38
0.161401	-0.560625	2706.87
0.361401	-0.560625	2705.67
0.561401	-0.560625	2704.88
0.761401	-0.560625	2703.51
0.961401	-0.560625	2700.66
1.161401	-0.560625	2693.39
1.361401	-0.560625	2693.64
1.561401	-0.560625	2692.74
1.761401	-0.560625	2689.27
1.961401	-0.560625	2698.23
2.161401	-0.560625	2701.53
-1.838599	-0.360625	2698.73
-1.638599	-0.360625	2700.58
-1.438599	-0.360625	2701.52
-1.238599	-0.360625	2702.46
-1.038599	-0.360625	2703.42
-0.838599	-0.360625	2703.54
-0.638599	-0.360625	2703.33
-0.438599	-0.360625	2703.56
-0.238599	-0.360625	2705.76
-0.038599	-0.360625	2708.28
0.161401	-0.360625	2708.91
0.361401	-0.360625	2707.41
0.561401	-0.360625	2705.2
0.761401	-0.360625	2704.35
0.961401	-0.360625	2702.41
1.161401	-0.360625	2699.55
1.361401	-0.360625	2693.3
1.561401	-0.360625	2695.14
1.761401	-0.360625	2702.44
1.961401	-0.360625	2700.29
2.161401	-0.360625	2699.39
-1.838599	-0.160625	2699.07
-1.638599	-0.160625	2699.1
-1.438599	-0.160625	2701.45
-1.238599	-0.160625	2702.28
-1.038599	-0.160625	2703.77
-0.838599	-0.160625	2702.37
-0.638599	-0.160625	2704.48
-0.438599	-0.160625	2703.07
-0.238599	-0.160625	2705.34
-0.038599	-0.160625	2706.37
0.161401	-0.160625	2706.68
0.361401	-0.160625	2705.58
0.561401	-0.160625	2705.31
0.761401	-0.160625	2706.25
0.961401	-0.160625	2704.44
1.161401	-0.160625	2702.81
1.361401	-0.160625	2700.01
1.561401	-0.160625	2703.38
1.761401	-0.160625	2703.1
1.961401	-0.160625	2699.92
2.161401	-0.160625	2698.13
-1.838599	0.039375	2700.94
-1.638599	0.039375	2701.43
-1.438599	0.039375	2702.28
-1.238599	0.039375	2702.02
-1.038599	0.039375	2702.8
-0.838599	0.039375	2703.21
-0.638599	0.039375	2703.39
-0.438599	0.039375	2704.02
-0.238599	0.039375	2701.62
-0.038599	0.039375	2703.67
0.161401	0.039375	2704.71
0.361401	0.039375	2703.31
0.561401	0.039375	2704.88
0.761401	0.039375	2706.35
0.961401	0.039375	2705.09
1.161401	0.039375	2702.13
1.361401	0.039375	2699.71
1.561401	0.039375	2700.02
1.761401	0.039375	2700.07
1.961401	0.039375	2701.56
2.161401	0.039375	2701.44
-1.838599	0.239375	2701.91
-1.638599	0.239375	2702.61
-1.438599	0.239375	2703.67
-1.238599	0.239375	2704.97
-1.038599	0.239375	2702.58
-0.838599	0.239375	2703.5
-0.638599	0.239375	2703.52
-0.438599	0.239375	2702.82
-0.238599	0.239375	2703.65
-0.038599	0.239375	2703
0.161401	0.239375	2702.63
0.361401	0.239375	2703.16
0.561401	0.239375	2703.54
0.761401	0.239375	2703.41
0.961401	0.239375	2702.26
1.161401	0.239375	2700.17
1.361401	0.239375	2696.77
1.561401	0.239375	2697.89
1.761401	0.239375	2698.61
1.961401	0.239375	2700.31
2.161401	0.239375	2700
-1.838599	0.439375	2703.9
-1.638599	0.439375	2703.7
-1.438599	0.439375	2704.49
-1.238599	0.439375	2703.4
-1.038599	0.439375	2704.21
-0.838599	0.439375	2702.61
-0.638599	0.439375	2702.33
-0.438599	0.439375	2702.96
-0.238599	0.439375	2702.86
-0.038599	0.439375	2700.62
0.161401	0.439375	2699.11
0.361401	0.439375	2697.73
0.561401	0.439375	2700.86
0.761401	0.439375	2703.16
0.961401	0.439375	2700.4
1.161401	0.439375	2701.08
1.361401	0.439375	2699.05
1.561401	0.439375	2701.89
1.761401	0.439375	2699.36
1.961401	0.439375	2699.3
2.161401	0.439375	2698.11
-1.838599	0.639375	2698.2
-1.638599	0.639375	2704.63
-1.438599	0.639375	2703.31
-1.238599	0.639375	2705.73
-1.038599	0.639375	2703.23
-0.838599	0.639375	2704.59
-0.638599	0.639375	2702.31
-0.438599	0.639375	2701.44
-0.238599	0.639375	2701.02
-0.038599	0.639375	2698.42
0.161401	0.639375	2697.29
0.361401	0.639375	2695.55
0.561401	0.639375	2701.3
0.761401	0.639375	2702.36
0.961401	0.639375	2699.85
1.161401	0.639375	2698.31
1.361401	0.639375	2696.17
1.561401	0.639375	2700.58
1.761401	0.639375	2704.5
1.961401	0.639375	2701.51
2.161401	0.639375	2701.89
-1.838599	0.839375	2696.86
-1.638599	0.839375	2702.85
-1.438599	0.839375	2704.15
-1.238599	0.839375	2703.64
-1.038599	0.839375	2703.25
-0.838599	0.839375	2702.16
-0.638599	0.839375	2700.07
-0.438599	0.839375	2700.73
-0.238599	0.839375	2700.46
-0.038599	0.839375	2700.89
0.161401	0.839375	2697.66
0.361401	0.839375	2696.42
0.561401	0.839375	2698.31
0.761401	0.839375	2701.35
0.961401	0.839375	2698.49
1.161401	0.839375	2692.22
1.361401	0.839375	2697.98
1.561401	0.839375	2701.07
1.761401	0.839375	2701.88
1.961401	0.839375	2698.67
2.161401	0.839375	2699.44
-1.838599	1.039375	2691.27
-1.638599	1.039375	2705.18
-1.438599	1.039375	2701.04
-1.238599	1.039375	2697.6
-1.038599	1.039375	2700
-0.838599	1.039375	2699.81
-0.638599	1.039375	2700.7
-0.438599	1.039375	2699.56
-0.238599	1.039375	2696
-0.038599	1.039375	2702.64
0.161401	1.039375	2706.04
0.361401	1.039375	2711.47
0.561401	1.039375	2695.68
0.761401	1.039375	2709.84
0.961401	1.039375	2680.4
1.161401	1.039375	2710.32
1.361401	1.039375	2690.74
1.561401	1.039375	2689.83
1.761401	1.039375	2697.24
1.961401	1.039375	2690.59
2.161401	1.039375	2695.47
-1.838599	1.239375	2713.23
-1.638599	1.239375	2705.2
-1.438599	1.239375	2702.38
-1.238599	1.239375	2702.81
-1.038599	1.239375	2696.96
-0.838599	1.239375	2699.49
-0.638599	1.239375	2697.53
-0.438599	1.239375	2696.13
-0.238599	1.239375	2704.25
-0.038599	1.239375	2707.05
0.161401	1.239375	2696.16
0.361401	1.239375	2732.91
0.561401	1.239375	2686.89
0.761401	1.239375	2665.77
0.961401	1.239375	2705.8
1.161401	1.239375	2694.89
1.361401	1.239375	2699.32
1.561401	1.239375	2694.13
1.761401	1.239375	2693.87
1.961401	1.239375	2735.18
2.161401	1.239375	2669.27
-1.838599	1.439375	2389.39
-1.638599	1.439375	2698.87
-1.438599	1.439375	2706.27
-1.238599	1.439375	2697.67
-1.038599	1.439375	2702.58
-0.838599	1.439375	2698.64
-0.638599	1.439375	2700.24
-0.438599	1.439375	2695.67
-0.238599	1.439375	2692.04
-0.038599	1.439375	2578.5
0.161401	1.439375	2562.59
0.361401	1.439375	2689.12
0.561401	1.439375	2701.89
0.761401	1.439375	2704.16
0.961401	1.439375	2685.92
1.161401	1.439375	2723.14
1.361401	1.439375	2706.71
1.561401	1.439375	2689.72
1.761401	1.439375	2700.59
1.961401	1.439375	2701.23
2.161401	1.439375	2729.74
-1.838599	1.639375	2694.66
-1.638599	1.639375	2659.88
-1.438599	1.639375	2676.13
-1.238599	1.639375	2705.68
-1.038599	1.639375	2687.7
-0.838599	1.639375	2707.55
-0.638599	1.639375	2703.12
-0.438599	1.639375	2693.12
-0.238599	1.639375	2640.75
-0.038599	1.639375	2637.08
0.161401	1.639375	2227.92
0.361401	1.639375	2704.61
0.561401	1.639375	2731.18
0.761401	1.639375	2876.87
0.961401	1.639375	2690.36
1.161401	1.639375	2702.99
1.361401	1.639375	2708.7
1.561401	1.639375	2723.18
1.761401	1.639375	2698.07
1.961401	1.639375	2713.77
2.161401	1.639375	2723.4
-1.838599	1.839375	2761.01
-1.638599	1.839375	2705.24
-1.438599	1.839375	2708.76
-1.238599	1.839375	2691.93
-1.038599	1.839375	2723.5
-0.838599	1.839375	2647.06
-0.638599	1.839375	2762.07
-0.438599	1.839375	2680.98
-0.238599	1.839375	2576.77
-0.038599	1.839375	2701.06
0.161401	1.839375	2684.12
0.361401	1.839375	2687.1
0.561401	1.839375	2682.66
0.761401	1.839375	2684.96
0.961401	1.839375	2698.78
1.161401	1.839375	2697.89
1.361401	1.839375	2696.03
1.561401	1.839375	2706.4
1.761401	1.839375	2709.86
1.961401	1.839375	2707.15
2.161401	1.839375	2698.61
-1.838599	2.039375	2648.93
-1.638599	2.039375	2528.97
-1.438599	2.039375	2727.77
-1.238599	2.039375	2597.58
-1.038599	2.039375	2702.16
-0.838599	2.039375	2699.71
-0.638599	2.039375	2691.84
-0.438599	2.039375	2635.27
-0.238599	2.039375	2706.45
-0.038599	2.039375	2693.22
0.161401	2.039375	3339.62
0.361401	2.039375	2607.96
0.561401	2.039375	2698.64
0.761401	2.039375	2703.92
0.961401	2.039375	2703.57
1.161401	2.039375	2699.05
1.361401	2.039375	2698.63
1.561401	2.039375	2700.64
1.761401	2.039375	2705.95
1.961401	2.039375	2706.51
2.161401	2.039375	2712.72
-1.838599	2.239375	2706.14
-1.638599	2.239375	2385.93
-1.438599	2.239375	2706.52
-1.238599	2.239375	2637.05
-1.038599	2.239375	2653.33
-0.838599	2.239375	2745.88
-0.638599	2.239375	2565.06
-0.438599	2.239375	2727.3
-0.238599	2.239375	2710.23
-0.038599	2.239375	2704.05
0.161401	2.239375	2700.54
0.361401	2.239375	2694.11
0.561401	2.239375	2698.33
0.761401	2.239375	2705.62
0.961401	2.239375	2700.69
1.161401	2.239375	2697.07
1.361401	2.239375	2700.2
1.561401	2.239375	2702.14
1.761401	2.239375	2705.89
1.961401	2.239375	2715.77
2.161401	2.239375	2705.24