File: data/derived_data/raman/20171207_GrNH2_from_20171130/20171207_GrNH2_map_1/D FWHM.txt
#XList		#YList		#IList
-1.838599	-0.760625	63.3385
-1.638599	-0.760625	60.4428
-1.438599	-0.760625	60.1226
-1.238599	-0.760625	60.4374
-1.038599	-0.760625	59.6746
-0.838599	-0.760625	61.2907
-0.638599	-0.760625	61.8449
-0.438599	-0.760625	64.9094
-0.238599	-0.760625	64.5133
-0.038599	-0.760625	67.7153
0.161401	-0.760625	65.2055
0.361401	-0.760625	66.6885
0.561401	-0.760625	69.1551
0.761401	-0.760625	65.8179
0.961401	-0.760625	64.6334
1.161401	-0.760625	64.8786
1.361401	-0.760625	61.5935
1.561401	-0.760625	59.9977
1.761401	-0.760625	63.2864
1.961401	-0.760625	60.5514
2.161401	-0.760625	69.7973
-1.838599	-0.560625	60.1411
-1.638599	-0.560625	59.364
-1.438599	-0.560625	57.7651
-1.238599	-0.560625	58.0545
-1.038599	-0.560625	57.4
-0.838599	-0.560625	60.1592
-0.638599	-0.560625	61.4113
-0.438599	-0.560625	61.1051
-0.238599	-0.560625	59.6153
-0.038599	-0.560625	63.0941
0.161401	-0.560625	62.6025
0.361401	-0.560625	64.6163
0.561401	-0.560625	62.4727
0.761401	-0.560625	63.1122
0.961401	-0.560625	63.9307
1.161401	-0.560625	65.2456
1.361401	-0.560625	66.1094
1.561401	-0.560625	63.2294
1.761401	-0.560625	64.6367
1.961401	-0.560625	62.9686
2.161401	-0.560625	63.1366
-1.838599	-0.360625	58.4848
-1.638599	-0.360625	55.1023
-1.438599	-0.360625	54.7329
-1.238599	-0.360625	57.8843
-1.038599	-0.360625	58.8239
-0.838599	-0.360625	58.5495
-0.638599	-0.360625	59.2338
-0.438599	-0.360625	60.6794
-0.238599	-0.360625	58.385
-0.038599	-0.360625	59.9037
0.161401	-0.360625	61.0517
0.361401	-0.360625	62.0214
0.561401	-0.360625	63.3677
0.761401	-0.360625	62.9552
0.961401	-0.360625	64.5565
1.161401	-0.360625	66.142
1.361401	-0.360625	65.1533
1.561401	-0.360625	65.9401
1.761401	-0.360625	65.3675
1.961401	-0.360625	62.769
2.161401	-0.360625	59.9523
-1.838599	-0.160625	56.6221
-1.638599	-0.160625	56.7518
-1.438599	-0.160625	54.718
-1.238599	-0.160625	57.4132
-1.038599	-0.160625	60.1629
-0.838599	-0.160625	62.018
-0.638599	-0.160625	59.5707
-0.438599	-0.160625	57.721
-0.238599	-0.160625	60.1233
-0.038599	-0.160625	58.378
0.161401	-0.160625	59.8274
0.361401	-0.160625	60.4181
0.561401	-0.160625	61.6416
0.761401	-0.160625	66.1104
0.961401	-0.160625	66.2415
1.161401	-0.160625	67.7635
1.361401	-0.160625	67.4842
1.561401	-0.160625	67.9192
1.761401	-0.160625	71.1184
1.961401	-0.160625	73.6982
2.161401	-0.160625	65.9042
-1.838599	0.039375	58.099
-1.638599	0.039375	56.7057
-1.438599	0.039375	56.2846
-1.238599	0.039375	58.2382
-1.038599	0.039375	59.0565
-0.838599	0.039375	60.6963
-0.638599	0.039375	61.498
-0.438599	0.039375	60.418
-0.238599	0.039375	60.4786
-0.038599	0.039375	57.3787
0.161401	0.039375	57.5088
0.361401	0.039375	58.3099
0.561401	0.039375	63.0933
0.761401	0.039375	63.9977
0.961401	0.039375	65.735
1.161401	0.039375	67.6661
1.361401	0.039375	69.3241
1.561401	0.039375	62.0008
1.761401	0.039375	62.6277
1.961401	0.039375	62.3527
2.161401	0.039375	67.2223
-1.838599	0.239375	57.0869
-1.638599	0.239375	57.1808
-1.438599	0.239375	57.3847
-1.238599	0.239375	57.9998
-1.038599	0.239375	59.6427
-0.838599	0.239375	58.8277
-0.638599	0.239375	59.4534
-0.438599	0.239375	60.4741
-0.238599	0.239375	60.7272
-0.038599	0.239375	60.3724
0.161401	0.239375	60.5601
0.361401	0.239375	62.6981
0.561401	0.239375	63.1749
0.761401	0.239375	66.2484
0.961401	0.239375	64.6567
1.161401	0.239375	67.6426
1.361401	0.239375	66.9192
1.561401	0.239375	62.9813
1.761401	0.239375	62.6828
1.961401	0.239375	63.9716
2.161401	0.239375	64.6672
-1.838599	0.439375	54.1986
-1.638599	0.439375	55.3806
-1.438599	0.439375	56.3962
-1.238599	0.439375	56.7102
-1.038599	0.439375	58.0362
-0.838599	0.439375	58.2213
-0.638599	0.439375	59.3899
-0.438599	0.439375	61.5356
-0.238599	0.439375	61.7944
-0.038599	0.439375	63.2245
0.161401	0.439375	68.079
0.361401	0.439375	65.8818
0.561401	0.439375	65.81
0.761401	0.439375	65.7568
0.961401	0.439375	65.4447
1.161401	0.439375	67.2734
1.361401	0.439375	67.5209
1.561401	0.439375	63.3066
1.761401	0.439375	62.4568
1.961401	0.439375	64.7471
2.161401	0.439375	63.9093
-1.838599	0.639375	60.2999
-1.638599	0.639375	57.1459
-1.438599	0.639375	57.812
-1.238599	0.639375	58.3715
-1.038599	0.639375	56.5985
-0.838599	0.639375	59.2836
-0.638599	0.639375	59.0456
-0.438599	0.639375	60.304
-0.238599	0.639375	60.5763
-0.038599	0.639375	63.1578
0.161401	0.639375	64.5601
0.361401	0.639375	68.6
0.561401	0.639375	68.2091
0.761401	0.639375	63.5721
0.961401	0.639375	65.5465
1.161401	0.639375	67.2336
1.361401	0.639375	71.0089
1.561401	0.639375	66.2925
1.761401	0.639375	65.1677
1.961401	0.639375	64.8201
2.161401	0.639375	64.5363
-1.838599	0.839375	56.9479
-1.638599	0.839375	57.6662
-1.438599	0.839375	57.702
-1.238599	0.839375	56.3072
-1.038599	0.839375	58.8576
-0.838599	0.839375	58.4541
-0.638599	0.839375	58.5676
-0.438599	0.839375	60.3776
-0.238599	0.839375	60.6115
-0.038599	0.839375	61.6718
0.161401	0.839375	61.1253
0.361401	0.839375	64.405
0.561401	0.839375	70.4917
0.761401	0.839375	68.1945
0.961401	0.839375	63.2987
1.161401	0.839375	63.1547
1.361401	0.839375	67.3449
1.561401	0.839375	64.6072
1.761401	0.839375	64.847
1.961401	0.839375	64.3173
2.161401	0.839375	63.1489
-1.838599	1.039375	74.1668
-1.638599	1.039375	52.3949
-1.438599	1.039375	55.0704
-1.238599	1.039375	55.7638
-1.038599	1.039375	56.415
-0.838599	1.039375	57.9224
-0.638599	1.039375	57.0898
-0.438599	1.039375	57.2291
-0.238599	1.039375	59.6742
-0.038599	1.039375	61.0714
0.161401	1.039375	59.6906
0.361401	1.039375	58.9281
0.561401	1.039375	69.9703
0.761401	1.039375	58.6646
0.961401	1.039375	57.605
1.161401	1.039375	60.3959
1.361401	1.039375	65.6397
1.561401	1.039375	66.6845
1.761401	1.039375	65.6153
1.961401	1.039375	59.0286
2.161401	1.039375	78.204
-1.838599	1.239375	63.6631
-1.638599	1.239375	51.057
-1.438599	1.239375	53.3277
-1.238599	1.239375	52.8188
-1.038599	1.239375	54.1327
-0.838599	1.239375	54.6922
-0.638599	1.239375	56.6636
-0.438599	1.239375	57.9378
-0.238599	1.239375	60.6385
-0.038599	1.239375	54.258
0.161401	1.239375	60.3386
0.361401	1.239375	55.2008
0.561401	1.239375	63.8445
0.761401	1.239375	74.7951
0.961401	1.239375	58.386
1.161401	1.239375	66.1309
1.361401	1.239375	59.929
1.561401	1.239375	73.593
1.761401	1.239375	58.28
1.961401	1.239375	73.6766
2.161401	1.239375	73.4063
-1.838599	1.439375	61.361
-1.638599	1.439375	65.6186
-1.438599	1.439375	51.6777
-1.238599	1.439375	55.608
-1.038599	1.439375	51.1306
-0.838599	1.439375	46.0357
-0.638599	1.439375	50.6762
-0.438599	1.439375	52.7732
-0.238599	1.439375	62.3554
-0.038599	1.439375	53.2551
0.161401	1.439375	62.9803
0.361401	1.439375	76.0434
0.561401	1.439375	57.3532
0.761401	1.439375	60.355
0.961401	1.439375	85.1965
1.161401	1.439375	82.2474
1.361401	1.439375	69.7323
1.561401	1.439375	57.4213
1.761401	1.439375	58.6538
1.961401	1.439375	51.8932
2.161401	1.439375	75.397
-1.838599	1.639375	38.5139
-1.638599	1.639375	37.8924
-1.438599	1.639375	66.9319
-1.238599	1.639375	50.0579
-1.038599	1.639375	52.6776
-0.838599	1.639375	44.8008
-0.638599	1.639375	65.9943
-0.438599	1.639375	73.488
-0.238599	1.639375	89.7745
-0.038599	1.639375	50.1128
0.161401	1.639375	63.5526
0.361401	1.639375	62.9165
0.561401	1.639375	67.2837
0.761401	1.639375	76.0152
0.961401	1.639375	74.1205
1.161401	1.639375	80.0621
1.361401	1.639375	93.7952
1.561401	1.639375	73.5907
1.761401	1.639375	53.5124
1.961401	1.639375	80.2558
2.161401	1.639375	85.8367
-1.838599	1.839375	96.7078
-1.638599	1.839375	133.924
-1.438599	1.839375	115.458
-1.238599	1.839375	51.5146
-1.038599	1.839375	58.4539
-0.838599	1.839375	79.6703
-0.638599	1.839375	71.5677
-0.438599	1.839375	100.794
-0.238599	1.839375	85.6904
-0.038599	1.839375	74.105
0.161401	1.839375	75.8587
0.361401	1.839375	70.4176
0.561401	1.839375	83.5753
0.761401	1.839375	76.7504
0.961401	1.839375	77.7131
1.161401	1.839375	75.9935
1.361401	1.839375	80.1841
1.561401	1.839375	77.4971
1.761401	1.839375	74.968
1.961401	1.839375	88.697
2.161401	1.839375	50.2976
-1.838599	2.039375	2.152935
-1.638599	2.039375	44.6974
-1.438599	2.039375	1561.8
-1.238599	2.039375	53.6227
-1.038599	2.039375	398.655
-0.838599	2.039375	118.57
-0.638599	2.039375	94.6392
-0.438599	2.039375	30.3304
-0.238599	2.039375	34.8022
-0.038599	2.039375	69.3993
0.161401	2.039375	74.0524
0.361401	2.039375	55.9947
0.561401	2.039375	80.7501
0.761401	2.039375	77.2583
0.961401	2.039375	76.189
1.161401	2.039375	72.9371
1.361401	2.039375	71.8677
1.561401	2.039375	72.9565
1.761401	2.039375	74.4688
1.961401	2.039375	74.1962
2.161401	2.039375	57.6283
-1.838599	2.239375	14.0894
-1.638599	2.239375	94.296
-1.438599	2.239375	2595.04
-1.238599	2.239375	2.022389
-1.038599	2.239375	198.247
-0.838599	2.239375	2595.04
-0.638599	2.239375	866.904
-0.438599	2.239375	104.8
-0.238599	2.239375	81.8323
-0.038599	2.239375	61.1098
0.161401	2.239375	54.6252
0.361401	2.239375	65.746
0.561401	2.239375	72.6031
0.761401	2.239375	75.1461
0.961401	2.239375	68.9759
1.161401	2.239375	66.6191
1.361401	2.239375	66.6238
1.561401	2.239375	69.2662
1.761401	2.239375	71.2954
1.961401	2.239375	68.3733
2.161401	2.239375	66.5743