File: data/derived_data/raman/20171207_GrNH2_from_20171130/20171207_GrNH2_map_1/D int.txt
#XList		#YList		#IList
-1.838599	-0.760625	310.665
-1.638599	-0.760625	387.302
-1.438599	-0.760625	403.037
-1.238599	-0.760625	420.961
-1.038599	-0.760625	440.887
-0.838599	-0.760625	416.001
-0.638599	-0.760625	406.713
-0.438599	-0.760625	394.406
-0.238599	-0.760625	348.609
-0.038599	-0.760625	354.734
0.161401	-0.760625	403.993
0.361401	-0.760625	524.681
0.561401	-0.760625	631.574
0.761401	-0.760625	554.008
0.961401	-0.760625	461.827
1.161401	-0.760625	451.951
1.361401	-0.760625	482.652
1.561401	-0.760625	402.021
1.761401	-0.760625	195.254
1.961401	-0.760625	127.415
2.161401	-0.760625	198.511
-1.838599	-0.560625	399.522
-1.638599	-0.560625	454.232
-1.438599	-0.560625	426.227
-1.238599	-0.560625	439.469
-1.038599	-0.560625	444.443
-0.838599	-0.560625	425.266
-0.638599	-0.560625	428.385
-0.438599	-0.560625	404.732
-0.238599	-0.560625	342.481
-0.038599	-0.560625	309.909
0.161401	-0.560625	363.43
0.361401	-0.560625	466.512
0.561401	-0.560625	561.237
0.761401	-0.560625	484.865
0.961401	-0.560625	461.188
1.161401	-0.560625	474.983
1.361401	-0.560625	472.978
1.561401	-0.560625	370.637
1.761401	-0.560625	189.995
1.961401	-0.560625	114.46
2.161401	-0.560625	180.018
-1.838599	-0.360625	409.122
-1.638599	-0.360625	521.365
-1.438599	-0.360625	474.94
-1.238599	-0.360625	470.247
-1.038599	-0.360625	438.348
-0.838599	-0.360625	422.747
-0.638599	-0.360625	414.379
-0.438599	-0.360625	401.654
-0.238599	-0.360625	351.71
-0.038599	-0.360625	312.494
0.161401	-0.360625	354.148
0.361401	-0.360625	424.709
0.561401	-0.360625	459.203
0.761401	-0.360625	426.616
0.961401	-0.360625	434.863
1.161401	-0.360625	427.469
1.361401	-0.360625	376.496
1.561401	-0.360625	239.374
1.761401	-0.360625	117.482
1.961401	-0.360625	83.2055
2.161401	-0.360625	101.515
-1.838599	-0.160625	348.996
-1.638599	-0.160625	510.819
-1.438599	-0.160625	450.976
-1.238599	-0.160625	438.026
-1.038599	-0.160625	423.644
-0.838599	-0.160625	410.197
-0.638599	-0.160625	404.025
-0.438599	-0.160625	412.354
-0.238599	-0.160625	372.591
-0.038599	-0.160625	347.156
0.161401	-0.160625	390.453
0.361401	-0.160625	439.514
0.561401	-0.160625	416.193
0.761401	-0.160625	372.817
0.961401	-0.160625	399.597
1.161401	-0.160625	378.519
1.361401	-0.160625	258.309
1.561401	-0.160625	161.178
1.761401	-0.160625	122.917
1.961401	-0.160625	94.8727
2.161401	-0.160625	74.164
-1.838599	0.039375	203.027
-1.638599	0.039375	405.473
-1.438599	0.039375	406.605
-1.238599	0.039375	396.104
-1.038599	0.039375	416.992
-0.838599	0.039375	402.347
-0.638599	0.039375	403.662
-0.438599	0.039375	412.228
-0.238599	0.039375	409.315
-0.038599	0.039375	381.581
0.161401	0.039375	378.605
0.361401	0.039375	419.532
0.561401	0.039375	403.953
0.761401	0.039375	374.161
0.961401	0.039375	405.538
1.161401	0.039375	379.841
1.361401	0.039375	264.7
1.561401	0.039375	259.953
1.761401	0.039375	321.916
1.961401	0.039375	276.908
2.161401	0.039375	181.065
-1.838599	0.239375	137.468
-1.638599	0.239375	311.271
-1.438599	0.239375	372.695
-1.238599	0.239375	366.217
-1.038599	0.239375	397.002
-0.838599	0.239375	393.736
-0.638599	0.239375	400.625
-0.438599	0.239375	407.15
-0.238599	0.239375	418.949
-0.038599	0.239375	401.271
0.161401	0.239375	401.889
0.361401	0.239375	412.401
0.561401	0.239375	396.448
0.761401	0.239375	382.625
0.961401	0.239375	427.866
1.161401	0.239375	399.026
1.361401	0.239375	329.295
1.561401	0.239375	427.874
1.761401	0.239375	575.443
1.961401	0.239375	557.422
2.161401	0.239375	418.225
-1.838599	0.439375	88.3046
-1.638599	0.439375	247.996
-1.438599	0.439375	343.679
-1.238599	0.439375	356.343
-1.038599	0.439375	385.944
-0.838599	0.439375	400.53
-0.638599	0.439375	381.224
-0.438599	0.439375	395.192
-0.238599	0.439375	404.125
-0.038599	0.439375	421.507
0.161401	0.439375	415.637
0.361401	0.439375	420.517
0.561401	0.439375	391.767
0.761401	0.439375	369.084
0.961401	0.439375	414.512
1.161401	0.439375	421.398
1.361401	0.439375	308.358
1.561401	0.439375	346.593
1.761401	0.439375	520.682
1.961401	0.439375	591.755
2.161401	0.439375	530.561
-1.838599	0.639375	55.7162
-1.638599	0.639375	202.633
-1.438599	0.639375	322.27
-1.238599	0.639375	357.631
-1.038599	0.639375	367.154
-0.838599	0.639375	376.644
-0.638599	0.639375	385.213
-0.438599	0.639375	393.175
-0.238599	0.639375	405.65
-0.038599	0.639375	410.23
0.161401	0.639375	373.79
0.361401	0.639375	309.828
0.561401	0.639375	281.165
0.761401	0.639375	276.657
0.961401	0.639375	319.739
1.161401	0.639375	346.813
1.361401	0.639375	245.982
1.561401	0.639375	142.426
1.761401	0.639375	189.18
1.961401	0.639375	295.464
2.161401	0.639375	347.79
-1.838599	0.839375	21.787
-1.638599	0.839375	112.608
-1.438599	0.839375	252.2
-1.238599	0.839375	346.687
-1.038599	0.839375	373.535
-0.838599	0.839375	381.77
-0.638599	0.839375	380.386
-0.438599	0.839375	377.567
-0.238599	0.839375	336.444
-0.038599	0.839375	277.06
0.161401	0.839375	225.686
0.361401	0.839375	156.591
0.561401	0.839375	105.17
0.761401	0.839375	101.848
0.961401	0.839375	140.416
1.161401	0.839375	195.871
1.361401	0.839375	150.717
1.561401	0.839375	71.6908
1.761401	0.839375	53.3863
1.961401	0.839375	76.0655
2.161401	0.839375	124.132
-1.838599	1.039375	8.757339
-1.638599	1.039375	49.9801
-1.438599	1.039375	173.634
-1.238599	1.039375	298.731
-1.038599	1.039375	364.435
-0.838599	1.039375	357.465
-0.638599	1.039375	325.072
-0.438599	1.039375	269.328
-0.238599	1.039375	194.776
-0.038599	1.039375	124.1
0.161401	1.039375	80.0075
0.361401	1.039375	46.5363
0.561401	1.039375	29.9757
0.761401	1.039375	28.386
0.961401	1.039375	38.7385
1.161401	1.039375	62.2279
1.361401	1.039375	53.8315
1.561401	1.039375	28.5482
1.761401	1.039375	24.0273
1.961401	1.039375	27.6144
2.161401	1.039375	28.5649
-1.838599	1.239375	6.419864
-1.638599	1.239375	20.9872
-1.438599	1.239375	83.0589
-1.238599	1.239375	198.892
-1.038599	1.239375	253.535
-0.838599	1.239375	224.491
-0.638599	1.239375	177.292
-0.438599	1.239375	120.081
-0.238599	1.239375	74.4963
-0.038599	1.239375	37.6013
0.161401	1.239375	19.407
0.361401	1.239375	16.7998
0.561401	1.239375	13.5414
0.761401	1.239375	15.1411
0.961401	1.239375	17.9825
1.161401	1.239375	17.9042
1.361401	1.239375	19.0386
1.561401	1.239375	15.2358
1.761401	1.239375	16.4675
1.961401	1.239375	13.4893
2.161401	1.239375	14.3758
-1.838599	1.439375	3.000350
-1.638599	1.439375	9.670557
-1.438599	1.439375	30.7782
-1.238599	1.439375	78.9799
-1.038599	1.439375	110.229
-0.838599	1.439375	90.2246
-0.638599	1.439375	59.7774
-0.438599	1.439375	38.2303
-0.238599	1.439375	17.0179
-0.038599	1.439375	15.3088
0.161401	1.439375	10.766
0.361401	1.439375	9.209164
0.561401	1.439375	9.835933
0.761401	1.439375	11.807
0.961401	1.439375	15.5172
1.161401	1.439375	17.1705
1.361401	1.439375	16.798
1.561401	1.439375	15.15
1.761401	1.439375	12.5973
1.961401	1.439375	10.2869
2.161401	1.439375	8.719165
-1.838599	1.639375	2.754668
-1.638599	1.639375	3.831870
-1.438599	1.639375	8.223801
-1.238599	1.639375	18.503
-1.038599	1.639375	22.7781
-0.838599	1.639375	18.2751
-0.638599	1.639375	15.9085
-0.438599	1.639375	10.9689
-0.238599	1.639375	9.475890
-0.038599	1.639375	8.524842
0.161401	1.639375	4.439504
0.361401	1.639375	7.136700
0.561401	1.639375	11.9045
0.761401	1.639375	18.093
0.961401	1.639375	30.0051
1.161401	1.639375	32.7122
1.361401	1.639375	28.846
1.561401	1.639375	21.2762
1.761401	1.639375	16.8237
1.961401	1.639375	11.089
2.161401	1.639375	7.642321
-1.838599	1.839375	2.675675
-1.638599	1.839375	0.737709
-1.438599	1.839375	3.500912
-1.238599	1.839375	5.922794
-1.038599	1.839375	6.923467
-0.838599	1.839375	5.967238
-0.638599	1.839375	6.749120
-0.438599	1.839375	4.951205
-0.238599	1.839375	3.846732
-0.038599	1.839375	4.314106
0.161401	1.839375	5.301595
0.361401	1.839375	6.950298
0.561401	1.839375	13.231
0.761401	1.839375	32.6515
0.961401	1.839375	54.9861
1.161401	1.839375	75.8293
1.361401	1.839375	66.9152
1.561401	1.839375	43.2155
1.761401	1.839375	24.0669
1.961401	1.839375	16.8792
2.161401	1.839375	10.6891
-1.838599	2.039375	4.121476
-1.638599	2.039375	4.133329
-1.438599	2.039375	1.189037
-1.238599	2.039375	2.349775
-1.038599	2.039375	1.371294
-0.838599	2.039375	2.066262
-0.638599	2.039375	3.225796
-0.438599	2.039375	3.023898
-0.238599	2.039375	3.362829
-0.038599	2.039375	4.975517
0.161401	2.039375	6.654791
0.361401	2.039375	11.3915
0.561401	2.039375	22.1222
0.761401	2.039375	53.7747
0.961401	2.039375	136.966
1.161401	2.039375	213.282
1.361401	2.039375	207.147
1.561401	2.039375	104.389
1.761401	2.039375	50.0465
1.961401	2.039375	26.7689
2.161401	2.039375	19.3155
-1.838599	2.239375	3.875970
-1.638599	2.239375	4.910320
-1.438599	2.239375	1.383628
-1.238599	2.239375	8.733432
-1.038599	2.239375	1.810001
-0.838599	2.239375	0.873561
-0.638599	2.239375	3.485132
-0.438599	2.239375	2.997218
-0.238599	2.239375	4.753700
-0.038599	2.239375	6.535269
0.161401	2.239375	8.703302
0.361401	2.239375	15.0931
0.561401	2.239375	37.5913
0.761401	2.239375	103.504
0.961401	2.239375	264.097
1.161401	2.239375	458.089
1.361401	2.239375	487.09
1.561401	2.239375	279.323
1.761401	2.239375	99.4923
1.961401	2.239375	49.9691
2.161401	2.239375	36.0943