File: data/derived_data/raman/20171207_GrNH2_from_20171130/20171207_GrNH2_map_1/D pos.txt
#XList		#YList		#IList
-1.838599	-0.760625	1351.64
-1.638599	-0.760625	1351.87
-1.438599	-0.760625	1352.56
-1.238599	-0.760625	1353.26
-1.038599	-0.760625	1352.77
-0.838599	-0.760625	1352.94
-0.638599	-0.760625	1352
-0.438599	-0.760625	1351.97
-0.238599	-0.760625	1352.35
-0.038599	-0.760625	1352.54
0.161401	-0.760625	1352.18
0.361401	-0.760625	1351.58
0.561401	-0.760625	1351.13
0.761401	-0.760625	1351.08
0.961401	-0.760625	1352.18
1.161401	-0.760625	1351.91
1.361401	-0.760625	1350.78
1.561401	-0.760625	1350.73
1.761401	-0.760625	1350.17
1.961401	-0.760625	1352.39
2.161401	-0.760625	1352.09
-1.838599	-0.560625	1351.22
-1.638599	-0.560625	1351.73
-1.438599	-0.560625	1353
-1.238599	-0.560625	1352.22
-1.038599	-0.560625	1352.48
-0.838599	-0.560625	1352.77
-0.638599	-0.560625	1352.26
-0.438599	-0.560625	1352.33
-0.238599	-0.560625	1352.74
-0.038599	-0.560625	1352.64
0.161401	-0.560625	1352.4
0.361401	-0.560625	1352.1
0.561401	-0.560625	1351.54
0.761401	-0.560625	1352
0.961401	-0.560625	1352.02
1.161401	-0.560625	1351.39
1.361401	-0.560625	1350.52
1.561401	-0.560625	1350.96
1.761401	-0.560625	1350.92
1.961401	-0.560625	1352.34
2.161401	-0.560625	1352.29
-1.838599	-0.360625	1351.07
-1.638599	-0.360625	1351.61
-1.438599	-0.360625	1352.36
-1.238599	-0.360625	1351.98
-1.038599	-0.360625	1352.43
-0.838599	-0.360625	1353.01
-0.638599	-0.360625	1353
-0.438599	-0.360625	1352.87
-0.238599	-0.360625	1352.84
-0.038599	-0.360625	1353
0.161401	-0.360625	1352.47
0.361401	-0.360625	1352.08
0.561401	-0.360625	1351.53
0.761401	-0.360625	1351.8
0.961401	-0.360625	1351.58
1.161401	-0.360625	1351.83
1.361401	-0.360625	1351.17
1.561401	-0.360625	1350.52
1.761401	-0.360625	1350.83
1.961401	-0.360625	1352.37
2.161401	-0.360625	1352.57
-1.838599	-0.160625	1352.11
-1.638599	-0.160625	1351.49
-1.438599	-0.160625	1351.91
-1.238599	-0.160625	1352.56
-1.038599	-0.160625	1351.81
-0.838599	-0.160625	1352.39
-0.638599	-0.160625	1353.07
-0.438599	-0.160625	1352.66
-0.238599	-0.160625	1352.85
-0.038599	-0.160625	1353.1
0.161401	-0.160625	1351.95
0.361401	-0.160625	1351.85
0.561401	-0.160625	1351.42
0.761401	-0.160625	1351.48
0.961401	-0.160625	1351.55
1.161401	-0.160625	1351.68
1.361401	-0.160625	1351.16
1.561401	-0.160625	1352.15
1.761401	-0.160625	1354.14
1.961401	-0.160625	1353.98
2.161401	-0.160625	1351.71
-1.838599	0.039375	1352.11
-1.638599	0.039375	1351.9
-1.438599	0.039375	1351.67
-1.238599	0.039375	1352.53
-1.038599	0.039375	1352.95
-0.838599	0.039375	1353.02
-0.638599	0.039375	1352.64
-0.438599	0.039375	1352.37
-0.238599	0.039375	1352.05
-0.038599	0.039375	1352.11
0.161401	0.039375	1352.36
0.361401	0.039375	1351.64
0.561401	0.039375	1351.62
0.761401	0.039375	1352.41
0.961401	0.039375	1352.05
1.161401	0.039375	1351.16
1.361401	0.039375	1351.19
1.561401	0.039375	1352.41
1.761401	0.039375	1352.38
1.961401	0.039375	1352.38
2.161401	0.039375	1352.45
-1.838599	0.239375	1353.43
-1.638599	0.239375	1352.3
-1.438599	0.239375	1353.41
-1.238599	0.239375	1352.64
-1.038599	0.239375	1352.77
-0.838599	0.239375	1351.89
-0.638599	0.239375	1352.66
-0.438599	0.239375	1352.64
-0.238599	0.239375	1351.84
-0.038599	0.239375	1351.87
0.161401	0.239375	1352.2
0.361401	0.239375	1351.63
0.561401	0.239375	1351.86
0.761401	0.239375	1351.62
0.961401	0.239375	1351.72
1.161401	0.239375	1351.49
1.361401	0.239375	1352.08
1.561401	0.239375	1352.09
1.761401	0.239375	1351.1
1.961401	0.239375	1352.07
2.161401	0.239375	1351.52
-1.838599	0.439375	1353.96
-1.638599	0.439375	1352.89
-1.438599	0.439375	1352.74
-1.238599	0.439375	1353.11
-1.038599	0.439375	1353.03
-0.838599	0.439375	1352.31
-0.638599	0.439375	1352.03
-0.438599	0.439375	1352.51
-0.238599	0.439375	1351.84
-0.038599	0.439375	1351.83
0.161401	0.439375	1351.86
0.361401	0.439375	1351.3
0.561401	0.439375	1351.71
0.761401	0.439375	1351.96
0.961401	0.439375	1351.67
1.161401	0.439375	1351.13
1.361401	0.439375	1351.04
1.561401	0.439375	1352.75
1.761401	0.439375	1352.04
1.961401	0.439375	1351.56
2.161401	0.439375	1351.96
-1.838599	0.639375	1353.13
-1.638599	0.639375	1352.93
-1.438599	0.639375	1352.35
-1.238599	0.639375	1352.93
-1.038599	0.639375	1352.85
-0.838599	0.639375	1352.45
-0.638599	0.639375	1352.41
-0.438599	0.639375	1352.44
-0.238599	0.639375	1352.03
-0.038599	0.639375	1351.84
0.161401	0.639375	1351.33
0.361401	0.639375	1351.07
0.561401	0.639375	1351.66
0.761401	0.639375	1351.95
0.961401	0.639375	1350.86
1.161401	0.639375	1351.27
1.361401	0.639375	1350.9
1.561401	0.639375	1353.46
1.761401	0.639375	1353.83
1.961401	0.639375	1353.13
2.161401	0.639375	1351.46
-1.838599	0.839375	1354.98
-1.638599	0.839375	1353.38
-1.438599	0.839375	1352.48
-1.238599	0.839375	1352.05
-1.038599	0.839375	1352.63
-0.838599	0.839375	1352.24
-0.638599	0.839375	1352.38
-0.438599	0.839375	1351.92
-0.238599	0.839375	1351.75
-0.038599	0.839375	1351.68
0.161401	0.839375	1351.47
0.361401	0.839375	1350.98
0.561401	0.839375	1351.28
0.761401	0.839375	1351.45
0.961401	0.839375	1352.38
1.161401	0.839375	1350.96
1.361401	0.839375	1350.67
1.561401	0.839375	1353.43
1.761401	0.839375	1353.05
1.961401	0.839375	1354.77
2.161401	0.839375	1352.02
-1.838599	1.039375	1358.13
-1.638599	1.039375	1353.59
-1.438599	1.039375	1352.6
-1.238599	1.039375	1351.4
-1.038599	1.039375	1351.71
-0.838599	1.039375	1352.37
-0.638599	1.039375	1351.98
-0.438599	1.039375	1352.27
-0.238599	1.039375	1351.87
-0.038599	1.039375	1352.41
0.161401	1.039375	1352.36
0.361401	1.039375	1350.66
0.561401	1.039375	1353.26
0.761401	1.039375	1353.13
0.961401	1.039375	1351.42
1.161401	1.039375	1351.6
1.361401	1.039375	1351.68
1.561401	1.039375	1353.1
1.761401	1.039375	1353.29
1.961401	1.039375	1352.78
2.161401	1.039375	1353.64
-1.838599	1.239375	1350.98
-1.638599	1.239375	1358.39
-1.438599	1.239375	1352.58
-1.238599	1.239375	1352.06
-1.038599	1.239375	1352.62
-0.838599	1.239375	1351.67
-0.638599	1.239375	1351.11
-0.438599	1.239375	1352.28
-0.238599	1.239375	1350.71
-0.038599	1.239375	1352.48
0.161401	1.239375	1351.88
0.361401	1.239375	1353.21
0.561401	1.239375	1354.18
0.761401	1.239375	1349.08
0.961401	1.239375	1353.34
1.161401	1.239375	1347.14
1.361401	1.239375	1353.41
1.561401	1.239375	1358.15
1.761401	1.239375	1352.56
1.961401	1.239375	1354.49
2.161401	1.239375	1352.58
-1.838599	1.439375	1340.3
-1.638599	1.439375	1355.88
-1.438599	1.439375	1351.52
-1.238599	1.439375	1352.54
-1.038599	1.439375	1352.63
-0.838599	1.439375	1352.19
-0.638599	1.439375	1351.64
-0.438599	1.439375	1351.84
-0.238599	1.439375	1349.58
-0.038599	1.439375	1347.89
0.161401	1.439375	1349.79
0.361401	1.439375	1349.55
0.561401	1.439375	1351.72
0.761401	1.439375	1350.57
0.961401	1.439375	1353.48
1.161401	1.439375	1358.62
1.361401	1.439375	1356.85
1.561401	1.439375	1351.24
1.761401	1.439375	1346.87
1.961401	1.439375	1352.25
2.161401	1.439375	1361.51
-1.838599	1.639375	1367.66
-1.638599	1.639375	1354.2
-1.438599	1.639375	1344.59
-1.238599	1.639375	1350.42
-1.038599	1.639375	1352.14
-0.838599	1.639375	1350.83
-0.638599	1.639375	1353.18
-0.438599	1.639375	1352.07
-0.238599	1.639375	1350.29
-0.038599	1.639375	1353.59
0.161401	1.639375	1350.83
0.361401	1.639375	1351.41
0.561401	1.639375	1354.25
0.761401	1.639375	1355.47
0.961401	1.639375	1356.2
1.161401	1.639375	1354.46
1.361401	1.639375	1351.31
1.561401	1.639375	1355.35
1.761401	1.639375	1357.03
1.961401	1.639375	1355.43
2.161401	1.639375	1359.05
-1.838599	1.839375	1328.14
-1.638599	1.839375	1446.68
-1.438599	1.839375	1363.57
-1.238599	1.839375	1356.86
-1.038599	1.839375	1362.26
-0.838599	1.839375	1352.38
-0.638599	1.839375	1349.77
-0.438599	1.839375	1349.29
-0.238599	1.839375	1360.61
-0.038599	1.839375	1343.5
0.161401	1.839375	1349.27
0.361401	1.839375	1372.89
0.561401	1.839375	1356.8
0.761401	1.839375	1354.15
0.961401	1.839375	1354.09
1.161401	1.839375	1355.05
1.361401	1.839375	1353.65
1.561401	1.839375	1353.8
1.761401	1.839375	1353.3
1.961401	1.839375	1355.84
2.161401	1.839375	1354.5
-1.838599	2.039375	1347.41
-1.638599	2.039375	1350.86
-1.438599	2.039375	942.882
-1.238599	2.039375	1361.27
-1.038599	2.039375	1506.24
-0.838599	2.039375	1371.14
-0.638599	2.039375	1334.7
-0.438599	2.039375	1349.22
-0.238599	2.039375	1337.19
-0.038599	2.039375	1346.36
0.161401	2.039375	1361.51
0.361401	2.039375	1356.98
0.561401	2.039375	1359.19
0.761401	2.039375	1354.6
0.961401	2.039375	1353.73
1.161401	2.039375	1352.64
1.361401	2.039375	1352.39
1.561401	2.039375	1351.84
1.761401	2.039375	1352.81
1.961401	2.039375	1353.38
2.161401	2.039375	1353.78
-1.838599	2.239375	1349.22
-1.638599	2.239375	919.655
-1.438599	2.239375	735.929
-1.238599	2.239375	1308.53
-1.038599	2.239375	1440.01
-0.838599	2.239375	2870.63
-0.638599	2.239375	475.34
-0.438599	2.239375	1369.7
-0.238599	2.239375	1353.43
-0.038599	2.239375	1363.09
0.161401	2.239375	1352.84
0.361401	2.239375	1355.1
0.561401	2.239375	1354.62
0.761401	2.239375	1354.14
0.961401	2.239375	1352.68
1.161401	2.239375	1351.93
1.361401	2.239375	1351.38
1.561401	2.239375	1351.36
1.761401	2.239375	1352.8
1.961401	2.239375	1353.41
2.161401	2.239375	1355.46