File: data/derived_data/raman/20171207_GrNH2_from_20171130/20171207_GrNH2_map_1/Dp FWHM.txt
#XList		#YList		#IList
-1.838599	-0.760625	17.3505
-1.638599	-0.760625	18.6343
-1.438599	-0.760625	19.5805
-1.238599	-0.760625	18.9756
-1.038599	-0.760625	18.4398
-0.838599	-0.760625	17.9579
-0.638599	-0.760625	19.738
-0.438599	-0.760625	19.8808
-0.238599	-0.760625	23.8215
-0.038599	-0.760625	23.208
0.161401	-0.760625	23.9925
0.361401	-0.760625	20.4709
0.561401	-0.760625	18.3416
0.761401	-0.760625	20.0364
0.961401	-0.760625	17.1039
1.161401	-0.760625	16.5369
1.361401	-0.760625	15.9358
1.561401	-0.760625	16.8697
1.761401	-0.760625	17.3032
1.961401	-0.760625	13.6532
2.161401	-0.760625	21.2671
-1.838599	-0.560625	19.1679
-1.638599	-0.560625	19.4667
-1.438599	-0.560625	17.8468
-1.238599	-0.560625	18.9121
-1.038599	-0.560625	20.4419
-0.838599	-0.560625	18.9217
-0.638599	-0.560625	17.833
-0.438599	-0.560625	17.7993
-0.238599	-0.560625	20.5493
-0.038599	-0.560625	26.8178
0.161401	-0.560625	25.6373
0.361401	-0.560625	23.8295
0.561401	-0.560625	21.2207
0.761401	-0.560625	19.0328
0.961401	-0.560625	18.3357
1.161401	-0.560625	16.3192
1.361401	-0.560625	18.503
1.561401	-0.560625	17.2983
1.761401	-0.560625	18.5281
1.961401	-0.560625	20.6256
2.161401	-0.560625	17.4431
-1.838599	-0.360625	18.4438
-1.638599	-0.360625	16.6587
-1.438599	-0.360625	18.4153
-1.238599	-0.360625	16.5287
-1.038599	-0.360625	18.6187
-0.838599	-0.360625	19.3551
-0.638599	-0.360625	20.0985
-0.438599	-0.360625	18.1691
-0.238599	-0.360625	23.1723
-0.038599	-0.360625	22.4771
0.161401	-0.360625	24.0616
0.361401	-0.360625	22.1526
0.561401	-0.360625	25.3252
0.761401	-0.360625	23.2462
0.961401	-0.360625	22.024
1.161401	-0.360625	18.548
1.361401	-0.360625	18.3447
1.561401	-0.360625	17.3056
1.761401	-0.360625	16.4265
1.961401	-0.360625	17.6086
2.161401	-0.360625	14.1776
-1.838599	-0.160625	18.0392
-1.638599	-0.160625	20.4782
-1.438599	-0.160625	19.2886
-1.238599	-0.160625	16.9644
-1.038599	-0.160625	19.2383
-0.838599	-0.160625	20.2715
-0.638599	-0.160625	18.4717
-0.438599	-0.160625	16.8987
-0.238599	-0.160625	20.0695
-0.038599	-0.160625	26.8998
0.161401	-0.160625	25.044
0.361401	-0.160625	24.7804
0.561401	-0.160625	23.124
0.761401	-0.160625	23.8574
0.961401	-0.160625	20.988
1.161401	-0.160625	19.6544
1.361401	-0.160625	16.6399
1.561401	-0.160625	15.0859
1.761401	-0.160625	12.8189
1.961401	-0.160625	15.5118
2.161401	-0.160625	15.4737
-1.838599	0.039375	17.9228
-1.638599	0.039375	16.9808
-1.438599	0.039375	16.8093
-1.238599	0.039375	18.0628
-1.038599	0.039375	18.2527
-0.838599	0.039375	20.0622
-0.638599	0.039375	17.8172
-0.438599	0.039375	20.1267
-0.238599	0.039375	18.5065
-0.038599	0.039375	21.3563
0.161401	0.039375	20.4336
0.361401	0.039375	24.8656
0.561401	0.039375	23.2448
0.761401	0.039375	23.2338
0.961401	0.039375	20.1587
1.161401	0.039375	19.8347
1.361401	0.039375	15.2009
1.561401	0.039375	15.2916
1.761401	0.039375	15.7371
1.961401	0.039375	16.323
2.161401	0.039375	16.9504
-1.838599	0.239375	16.5707
-1.638599	0.239375	21.3037
-1.438599	0.239375	23.2827
-1.238599	0.239375	18.0702
-1.038599	0.239375	20.0173
-0.838599	0.239375	19.6133
-0.638599	0.239375	19.7525
-0.438599	0.239375	17.5084
-0.238599	0.239375	19.5166
-0.038599	0.239375	21.0058
0.161401	0.239375	19.0517
0.361401	0.239375	19.8123
0.561401	0.239375	19.9056
0.761401	0.239375	21.098
0.961401	0.239375	20.7996
1.161401	0.239375	20.6384
1.361401	0.239375	19.3197
1.561401	0.239375	15.1032
1.761401	0.239375	15.6908
1.961401	0.239375	15.7589
2.161401	0.239375	15.0618
-1.838599	0.439375	18.2802
-1.638599	0.439375	20.4069
-1.438599	0.439375	19.6017
-1.238599	0.439375	19.2847
-1.038599	0.439375	21.001
-0.838599	0.439375	21.2704
-0.638599	0.439375	20.2074
-0.438599	0.439375	20.0274
-0.238599	0.439375	19.7891
-0.038599	0.439375	16.5345
0.161401	0.439375	18.8233
0.361401	0.439375	17.4649
0.561401	0.439375	17.289
0.761401	0.439375	18.4999
0.961401	0.439375	18.4676
1.161401	0.439375	16.4341
1.361401	0.439375	17.2225
1.561401	0.439375	16.3656
1.761401	0.439375	15.8717
1.961401	0.439375	16.8159
2.161401	0.439375	14.7531
-1.838599	0.639375	22.0773
-1.638599	0.639375	20.0368
-1.438599	0.639375	18.3545
-1.238599	0.639375	21.195
-1.038599	0.639375	18.2894
-0.838599	0.639375	19.4595
-0.638599	0.639375	19.4463
-0.438599	0.639375	16.9718
-0.238599	0.639375	17.8812
-0.038599	0.639375	18.7617
0.161401	0.639375	17.3425
0.361401	0.639375	16.9721
0.561401	0.639375	18.6138
0.761401	0.639375	17.0944
0.961401	0.639375	21.5962
1.161401	0.639375	20.0985
1.361401	0.639375	17.7596
1.561401	0.639375	18.5693
1.761401	0.639375	17.65
1.961401	0.639375	16.904
2.161401	0.639375	18.4485
-1.838599	0.839375	12.1118
-1.638599	0.839375	16.7958
-1.438599	0.839375	17.9299
-1.238599	0.839375	18.3676
-1.038599	0.839375	19.0745
-0.838599	0.839375	20.2997
-0.638599	0.839375	15.8018
-0.438599	0.839375	19.7658
-0.238599	0.839375	16.1601
-0.038599	0.839375	18.5133
0.161401	0.839375	16.5094
0.361401	0.839375	15.9063
0.561401	0.839375	12.8443
0.761401	0.839375	15.7546
0.961401	0.839375	17.7569
1.161401	0.839375	15.8934
1.361401	0.839375	17.8847
1.561401	0.839375	16.8609
1.761401	0.839375	17.0721
1.961401	0.839375	10.1633
2.161401	0.839375	17.5655
-1.838599	1.039375	43.7573
-1.638599	1.039375	22.7781
-1.438599	1.039375	18.755
-1.238599	1.039375	16.9531
-1.038599	1.039375	18.729
-0.838599	1.039375	18.1686
-0.638599	1.039375	17.5231
-0.438599	1.039375	16.4464
-0.238599	1.039375	15.4337
-0.038599	1.039375	18.9209
0.161401	1.039375	14.181
0.361401	1.039375	18.5828
0.561401	1.039375	18.1884
0.761401	1.039375	16.3201
0.961401	1.039375	15.1439
1.161401	1.039375	9.845082
1.361401	1.039375	6.996200
1.561401	1.039375	9.787048
1.761401	1.039375	16.2229
1.961401	1.039375	21.5782
2.161401	1.039375	16.9628
-1.838599	1.239375	40.1155
-1.638599	1.239375	20.1214
-1.438599	1.239375	20.4471
-1.238599	1.239375	17.5354
-1.038599	1.239375	15.234
-0.838599	1.239375	16.5069
-0.638599	1.239375	17.6325
-0.438599	1.239375	15.0813
-0.238599	1.239375	11.7578
-0.038599	1.239375	7.625836
0.161401	1.239375	18.7385
0.361401	1.239375	6.602610
0.561401	1.239375	2595.04
0.761401	1.239375	6.905615
0.961401	1.239375	8.861623
1.161401	1.239375	0.639804
1.361401	1.239375	51.3671
1.561401	1.239375	14.3269
1.761401	1.239375	1.244480
1.961401	1.239375	0.639804
2.161401	1.239375	2.720996
-1.838599	1.439375	6.626585
-1.638599	1.439375	8.439833
-1.438599	1.439375	20.924
-1.238599	1.439375	17.5094
-1.038599	1.439375	19.7773
-0.838599	1.439375	19.0655
-0.638599	1.439375	21.1951
-0.438599	1.439375	10.3496
-0.238599	1.439375	12.9417
-0.038599	1.439375	2595.04
0.161401	1.439375	9.612067
0.361401	1.439375	8.360801
0.561401	1.439375	0.639804
0.761401	1.439375	2.107187
0.961401	1.439375	0.722322
1.161401	1.439375	21.7107
1.361401	1.439375	9.256833
1.561401	1.439375	6.136401
1.761401	1.439375	40.1834
1.961401	1.439375	480.147
2.161401	1.439375	4.151439
-1.838599	1.639375	0.639804
-1.638599	1.639375	477.837
-1.438599	1.639375	2.276974
-1.238599	1.639375	5.376591
-1.038599	1.639375	29.3167
-0.838599	1.639375	23.3527
-0.638599	1.639375	14.477
-0.438599	1.639375	28.3578
-0.238599	1.639375	2.292265
-0.038599	1.639375	10.2149
0.161401	1.639375	0.639804
0.361401	1.639375	3.335564
0.561401	1.639375	1.414024
0.761401	1.639375	0.639804
0.961401	1.639375	1.423054
1.161401	1.639375	16.8368
1.361401	1.639375	16.4788
1.561401	1.639375	2.552000
1.761401	1.639375	0.639804
1.961401	1.639375	0.639804
2.161401	1.639375	1.069628
-1.838599	1.839375	0.694438
-1.638599	1.839375	4.636390
-1.438599	1.839375	81.2
-1.238599	1.839375	3.137533
-1.038599	1.839375	74.2898
-0.838599	1.839375	11.9471
-0.638599	1.839375	2.387844
-0.438599	1.839375	9.128913
-0.238599	1.839375	1.536208
-0.038599	1.839375	0.639804
0.161401	1.839375	2.400505
0.361401	1.839375	0.670634
0.561401	1.839375	1.758266
0.761401	1.839375	0.857934
0.961401	1.839375	9.492584
1.161401	1.839375	22.738
1.361401	1.839375	21.2945
1.561401	1.839375	18.6652
1.761401	1.839375	13.1552
1.961401	1.839375	9.455568
2.161401	1.839375	17.3852
-1.838599	2.039375	0.639804
-1.638599	2.039375	2.211132
-1.438599	2.039375	6.904206
-1.238599	2.039375	6.069347
-1.038599	2.039375	0.752465
-0.838599	2.039375	0.639804
-0.638599	2.039375	1.388291
-0.438599	2.039375	0.639804
-0.238599	2.039375	21.4036
-0.038599	2.039375	0.639804
0.161401	2.039375	11.2932
0.361401	2.039375	47.4487
0.561401	2.039375	3.579566
0.761401	2.039375	25.7429
0.961401	2.039375	20.025
1.161401	2.039375	15.5872
1.361401	2.039375	15.648
1.561401	2.039375	18.2334
1.761401	2.039375	12.91
1.961401	2.039375	21.4329
2.161401	2.039375	17.4173
-1.838599	2.239375	2.617832
-1.638599	2.239375	252.84
-1.438599	2.239375	1.358291
-1.238599	2.239375	0.639804
-1.038599	2.239375	1.016672
-0.838599	2.239375	11.5156
-0.638599	2.239375	0.639804
-0.438599	2.239375	4.327365
-0.238599	2.239375	0.874922
-0.038599	2.239375	0.639804
0.161401	2.239375	2.536787
0.361401	2.239375	5.570399
0.561401	2.239375	21.9135
0.761401	2.239375	13.7018
0.961401	2.239375	18.0662
1.161401	2.239375	18.1282
1.361401	2.239375	18.2404
1.561401	2.239375	19.0257
1.761401	2.239375	18.3927
1.961401	2.239375	16.9598
2.161401	2.239375	6.916061