File: data/derived_data/raman/20171207_GrNH2_from_20171130/20171207_GrNH2_map_1/Dp int.txt
#XList		#YList		#IList
-1.838599	-0.760625	110.573
-1.638599	-0.760625	143.636
-1.438599	-0.760625	163.697
-1.238599	-0.760625	165.648
-1.038599	-0.760625	162.23
-0.838599	-0.760625	167.173
-0.638599	-0.760625	169.049
-0.438599	-0.760625	157.43
-0.238599	-0.760625	152.023
-0.038599	-0.760625	154.702
0.161401	-0.760625	184.241
0.361401	-0.760625	217.267
0.561401	-0.760625	262.34
0.761401	-0.760625	206.712
0.961401	-0.760625	171.087
1.161401	-0.760625	156.128
1.361401	-0.760625	161.063
1.561401	-0.760625	132.446
1.761401	-0.760625	67.7728
1.961401	-0.760625	39.1403
2.161401	-0.760625	70.2007
-1.838599	-0.560625	156.066
-1.638599	-0.560625	173.677
-1.438599	-0.560625	161.923
-1.238599	-0.560625	174.984
-1.038599	-0.560625	176.219
-0.838599	-0.560625	166.782
-0.638599	-0.560625	157.721
-0.438599	-0.560625	161.033
-0.238599	-0.560625	139.659
-0.038599	-0.560625	146.607
0.161401	-0.560625	168.848
0.361401	-0.560625	214.839
0.561401	-0.560625	246.285
0.761401	-0.560625	193.129
0.961401	-0.560625	173.472
1.161401	-0.560625	172.434
1.361401	-0.560625	168.147
1.561401	-0.560625	122.61
1.761401	-0.560625	62.304
1.961401	-0.560625	48.2469
2.161401	-0.560625	68.9652
-1.838599	-0.360625	145.996
-1.638599	-0.360625	184.957
-1.438599	-0.360625	176.789
-1.238599	-0.360625	190.445
-1.038599	-0.360625	169.31
-0.838599	-0.360625	152.079
-0.638599	-0.360625	161.926
-0.438599	-0.360625	160.871
-0.238599	-0.360625	148.626
-0.038599	-0.360625	129.151
0.161401	-0.360625	157.381
0.361401	-0.360625	189.741
0.561401	-0.360625	204.072
0.761401	-0.360625	186.15
0.961401	-0.360625	168.704
1.161401	-0.360625	156.786
1.361401	-0.360625	134.28
1.561401	-0.360625	84.5371
1.761401	-0.360625	32.2312
1.961401	-0.360625	22.1371
2.161401	-0.360625	36.8608
-1.838599	-0.160625	122.157
-1.638599	-0.160625	178.795
-1.438599	-0.160625	170.758
-1.238599	-0.160625	155.25
-1.038599	-0.160625	161.278
-0.838599	-0.160625	165.755
-0.638599	-0.160625	158.194
-0.438599	-0.160625	152.125
-0.238599	-0.160625	145.594
-0.038599	-0.160625	145.794
0.161401	-0.160625	157.125
0.361401	-0.160625	187.631
0.561401	-0.160625	187.761
0.761401	-0.160625	169.053
0.961401	-0.160625	175.821
1.161401	-0.160625	148.918
1.361401	-0.160625	86.4725
1.561401	-0.160625	62.477
1.761401	-0.160625	37.6482
1.961401	-0.160625	24.9643
2.161401	-0.160625	22.6245
-1.838599	0.039375	75.0071
-1.638599	0.039375	135.031
-1.438599	0.039375	163.318
-1.238599	0.039375	141.755
-1.038599	0.039375	149.5
-0.838599	0.039375	146.146
-0.638599	0.039375	149.481
-0.438599	0.039375	150.661
-0.238599	0.039375	161.523
-0.038599	0.039375	148.023
0.161401	0.039375	166.84
0.361401	0.039375	163.97
0.561401	0.039375	160.299
0.761401	0.039375	172.483
0.961401	0.039375	175.673
1.161401	0.039375	159.433
1.361401	0.039375	90.3882
1.561401	0.039375	81.4633
1.761401	0.039375	97.9018
1.961401	0.039375	73.4257
2.161401	0.039375	58.4888
-1.838599	0.239375	46.5624
-1.638599	0.239375	114.356
-1.438599	0.239375	145.663
-1.238599	0.239375	139.034
-1.038599	0.239375	140.416
-0.838599	0.239375	158.558
-0.638599	0.239375	144.189
-0.438599	0.239375	155.028
-0.238599	0.239375	151.381
-0.038599	0.239375	165.106
0.161401	0.239375	157.843
0.361401	0.239375	164.057
0.561401	0.239375	158.069
0.761401	0.239375	163.689
0.961401	0.239375	177.329
1.161401	0.239375	163.274
1.361401	0.239375	125.095
1.561401	0.239375	144.625
1.761401	0.239375	184.72
1.961401	0.239375	190.974
2.161401	0.239375	131.154
-1.838599	0.439375	35.5098
-1.638599	0.439375	90.1018
-1.438599	0.439375	123.18
-1.238599	0.439375	137.886
-1.038599	0.439375	144.473
-0.838599	0.439375	152.047
-0.638599	0.439375	152.953
-0.438599	0.439375	169.26
-0.238599	0.439375	153.609
-0.038599	0.439375	165.061
0.161401	0.439375	164.89
0.361401	0.439375	148.891
0.561401	0.439375	144.993
0.761401	0.439375	151.51
0.961401	0.439375	165.653
1.161401	0.439375	157.292
1.361401	0.439375	125.784
1.561401	0.439375	118.678
1.761401	0.439375	172.964
1.961401	0.439375	181.523
2.161401	0.439375	163.491
-1.838599	0.639375	25.2411
-1.638599	0.639375	79.7428
-1.438599	0.639375	125.38
-1.238599	0.639375	123.256
-1.038599	0.639375	121.729
-0.838599	0.639375	141.537
-0.638599	0.639375	150.372
-0.438599	0.639375	140.404
-0.238599	0.639375	149.108
-0.038599	0.639375	163.739
0.161401	0.639375	139.164
0.361401	0.639375	123.811
0.561401	0.639375	108.914
0.761401	0.639375	108.822
0.961401	0.639375	138.096
1.161401	0.639375	130.416
1.361401	0.639375	92.3401
1.561401	0.639375	58.3195
1.761401	0.639375	66.2677
1.961401	0.639375	97.4305
2.161401	0.639375	118.432
-1.838599	0.839375	13.6621
-1.638599	0.839375	49.1666
-1.438599	0.839375	90.5133
-1.238599	0.839375	132.425
-1.038599	0.839375	133.487
-0.838599	0.839375	132.405
-0.638599	0.839375	145.53
-0.438599	0.839375	125.708
-0.238599	0.839375	118.744
-0.038599	0.839375	96.7232
0.161401	0.839375	89.5748
0.361401	0.839375	56.473
0.561401	0.839375	37.0666
0.761401	0.839375	40.8976
0.961401	0.839375	52.1433
1.161401	0.839375	67.855
1.361401	0.839375	53.2787
1.561401	0.839375	28.9397
1.761401	0.839375	15.2507
1.961401	0.839375	32.4406
2.161401	0.839375	41.1608
-1.838599	1.039375	5.008329
-1.638599	1.039375	18.6804
-1.438599	1.039375	59.6796
-1.238599	1.039375	113.587
-1.038599	1.039375	126.256
-0.838599	1.039375	115.704
-0.638599	1.039375	107.281
-0.438599	1.039375	92.0282
-0.238599	1.039375	67.6253
-0.038599	1.039375	46.284
0.161401	1.039375	31.2231
0.361401	1.039375	20.244
0.561401	1.039375	13.9465
0.761401	1.039375	14.9427
0.961401	1.039375	16.1448
1.161401	1.039375	17.5024
1.361401	1.039375	20.1909
1.561401	1.039375	7.834059
1.761401	1.039375	12.4393
1.961401	1.039375	6.527115
2.161401	1.039375	14.5769
-1.838599	1.239375	2.943897
-1.638599	1.239375	4.376904
-1.438599	1.239375	29.9239
-1.238599	1.239375	65.3844
-1.038599	1.239375	84.6086
-0.838599	1.239375	69.2093
-0.638599	1.239375	59.7471
-0.438599	1.239375	45.2396
-0.238599	1.239375	25.4404
-0.038599	1.239375	14.0913
0.161401	1.239375	7.992402
0.361401	1.239375	7.556087
0.561401	1.239375	0.654020
0.761401	1.239375	10.0166
0.961401	1.239375	9.541134
1.161401	1.239375	7.502672
1.361401	1.239375	8.817480
1.561401	1.239375	13.7885
1.761401	1.239375	36.1752
1.961401	1.239375	72.9028
2.161401	1.239375	7.639462
-1.838599	1.439375	5.620261
-1.638599	1.439375	4.016898
-1.438599	1.439375	9.936644
-1.238599	1.439375	24.9854
-1.038599	1.439375	41.8858
-0.838599	1.439375	32.4361
-0.638599	1.439375	24.9419
-0.438599	1.439375	14.3001
-0.238599	1.439375	10.0401
-0.038599	1.439375	1.183931
0.161401	1.439375	4.801180
0.361401	1.439375	9.612044
0.561401	1.439375	10.0098
0.761401	1.439375	7.968375
0.961401	1.439375	5.539882
1.161401	1.439375	6.951018
1.361401	1.439375	8.951361
1.561401	1.439375	6.700521
1.761401	1.439375	0.921630
1.961401	1.439375	0.558860
2.161401	1.439375	4.306835
-1.838599	1.639375	-3.389755
-1.638599	1.639375	1.118662
-1.438599	1.639375	10.3912
-1.238599	1.639375	10.5915
-1.038599	1.639375	11.3036
-0.838599	1.639375	8.588555
-0.638599	1.639375	8.455282
-0.438599	1.639375	2.748723
-0.238599	1.639375	11.2003
-0.038599	1.639375	3.597414
0.161401	1.639375	4.556099
0.361401	1.639375	-8.347191
0.561401	1.639375	-3.257304
0.761401	1.639375	-1.226237
0.961401	1.639375	-10.9405
1.161401	1.639375	7.142518
1.361401	1.639375	11.8465
1.561401	1.639375	12.056
1.761401	1.639375	-20.6693
1.961401	1.639375	63.6964
2.161401	1.639375	2.830746
-1.838599	1.839375	-3.960154
-1.638599	1.839375	5.384411
-1.438599	1.839375	2.257025
-1.238599	1.839375	-6.888575
-1.038599	1.839375	4.809095
-0.838599	1.839375	5.918362
-0.638599	1.839375	8.685492
-0.438599	1.839375	1.879175
-0.238599	1.839375	-3.017390
-0.038599	1.839375	-2.944954
0.161401	1.839375	5.329669
0.361401	1.839375	-37.8729
0.561401	1.839375	30.1074
0.761401	1.839375	-17.9495
0.961401	1.839375	17.4958
1.161401	1.839375	29.5844
1.361401	1.839375	28.1491
1.561401	1.839375	18.6095
1.761401	1.839375	4.261422
1.961401	1.839375	5.771115
2.161401	1.839375	6.288776
-1.838599	2.039375	-0.177203
-1.638599	2.039375	2.895816
-1.438599	2.039375	1.408064
-1.238599	2.039375	5.045595
-1.038599	2.039375	10.5655
-0.838599	2.039375	8.404402
-0.638599	2.039375	4.419336
-0.438599	2.039375	1.866549
-0.238599	2.039375	-1.536359
-0.038599	2.039375	-9.957326
0.161401	2.039375	4.940231
0.361401	2.039375	3.109414
0.561401	2.039375	9.899825
0.761401	2.039375	19.7675
0.961401	2.039375	42.2407
1.161401	2.039375	74.9614
1.361401	2.039375	69.945
1.561401	2.039375	32.14
1.761401	2.039375	16.0005
1.961401	2.039375	9.022002
2.161401	2.039375	8.523587
-1.838599	2.239375	6.788551
-1.638599	2.239375	1.313524
-1.438599	2.239375	1.906896
-1.238599	2.239375	9.038146
-1.038599	2.239375	-8.019514
-0.838599	2.239375	1.386421
-0.638599	2.239375	-2.951658
-0.438599	2.239375	-6.858758
-0.238599	2.239375	-7.315446
-0.038599	2.239375	3.616285
0.161401	2.239375	9.975110
0.361401	2.239375	8.064608
0.561401	2.239375	10.7851
0.761401	2.239375	29.3589
0.961401	2.239375	87.4168
1.161401	2.239375	138.019
1.361401	2.239375	157.692
1.561401	2.239375	80.865
1.761401	2.239375	32.2314
1.961401	2.239375	19.8954
2.161401	2.239375	12.0464