File: data/derived_data/raman/20171207_GrNH2_from_20171130/20171207_GrNH2_map_1/Dp pos.txt
#XList		#YList		#IList
-1.838599	-0.760625	1622.63
-1.638599	-0.760625	1621.73
-1.438599	-0.760625	1620.67
-1.238599	-0.760625	1621.4
-1.038599	-0.760625	1621.76
-0.838599	-0.760625	1621.22
-0.638599	-0.760625	1620.13
-0.438599	-0.760625	1621.54
-0.238599	-0.760625	1619.24
-0.038599	-0.760625	1619.89
0.161401	-0.760625	1619.53
0.361401	-0.760625	1619.95
0.561401	-0.760625	1619.91
0.761401	-0.760625	1620.03
0.961401	-0.760625	1621.92
1.161401	-0.760625	1622.13
1.361401	-0.760625	1622.17
1.561401	-0.760625	1621.31
1.761401	-0.760625	1620.97
1.961401	-0.760625	1622.75
2.161401	-0.760625	1618.43
-1.838599	-0.560625	1620.5
-1.638599	-0.560625	1621.67
-1.438599	-0.560625	1621.91
-1.238599	-0.560625	1621.39
-1.038599	-0.560625	1620.95
-0.838599	-0.560625	1621.79
-0.638599	-0.560625	1622.38
-0.438599	-0.560625	1621.66
-0.238599	-0.560625	1621.69
-0.038599	-0.560625	1618.89
0.161401	-0.560625	1618.7
0.361401	-0.560625	1618.51
0.561401	-0.560625	1619.4
0.761401	-0.560625	1620.67
0.961401	-0.560625	1621.34
1.161401	-0.560625	1622.65
1.361401	-0.560625	1620.25
1.561401	-0.560625	1621.56
1.761401	-0.560625	1619.38
1.961401	-0.560625	1621.14
2.161401	-0.560625	1621.29
-1.838599	-0.360625	1620.97
-1.638599	-0.360625	1622.23
-1.438599	-0.360625	1621.46
-1.238599	-0.360625	1621.95
-1.038599	-0.360625	1620.9
-0.838599	-0.360625	1621.41
-0.638599	-0.360625	1621.28
-0.438599	-0.360625	1621.72
-0.238599	-0.360625	1620.13
-0.038599	-0.360625	1619.52
0.161401	-0.360625	1619.39
0.361401	-0.360625	1620.47
0.561401	-0.360625	1618.08
0.761401	-0.360625	1619.16
0.961401	-0.360625	1619.28
1.161401	-0.360625	1621.09
1.361401	-0.360625	1620.31
1.561401	-0.360625	1621.11
1.761401	-0.360625	1620.19
1.961401	-0.360625	1621.6
2.161401	-0.360625	1622.25
-1.838599	-0.160625	1621.2
-1.638599	-0.160625	1619.88
-1.438599	-0.160625	1621.39
-1.238599	-0.160625	1622.3
-1.038599	-0.160625	1621.68
-0.838599	-0.160625	1621.33
-0.638599	-0.160625	1622.18
-0.438599	-0.160625	1622.31
-0.238599	-0.160625	1621.17
-0.038599	-0.160625	1618.6
0.161401	-0.160625	1618.8
0.361401	-0.160625	1618.64
0.561401	-0.160625	1619.24
0.761401	-0.160625	1619.12
0.961401	-0.160625	1620.3
1.161401	-0.160625	1619.79
1.361401	-0.160625	1621.69
1.561401	-0.160625	1620.84
1.761401	-0.160625	1622.26
1.961401	-0.160625	1618.56
2.161401	-0.160625	1619.81
-1.838599	0.039375	1621.7
-1.638599	0.039375	1622.04
-1.438599	0.039375	1622.16
-1.238599	0.039375	1622.68
-1.038599	0.039375	1621.51
-0.838599	0.039375	1620.82
-0.638599	0.039375	1621.04
-0.438599	0.039375	1620.96
-0.238599	0.039375	1621.37
-0.038599	0.039375	1620.63
0.161401	0.039375	1621.01
0.361401	0.039375	1619.5
0.561401	0.039375	1620.12
0.761401	0.039375	1619.16
0.961401	0.039375	1620.95
1.161401	0.039375	1620.13
1.361401	0.039375	1621.97
1.561401	0.039375	1621.45
1.761401	0.039375	1621.33
1.961401	0.039375	1620.54
2.161401	0.039375	1620.83
-1.838599	0.239375	1622.95
-1.638599	0.239375	1620.85
-1.438599	0.239375	1620.26
-1.238599	0.239375	1621.3
-1.038599	0.239375	1621.01
-0.838599	0.239375	1621.02
-0.638599	0.239375	1621.63
-0.438599	0.239375	1621.41
-0.238599	0.239375	1620.03
-0.038599	0.239375	1619.51
0.161401	0.239375	1621.1
0.361401	0.239375	1620.33
0.561401	0.239375	1621.41
0.761401	0.239375	1619.89
0.961401	0.239375	1619.93
1.161401	0.239375	1619.93
1.361401	0.239375	1619.91
1.561401	0.239375	1620.07
1.761401	0.239375	1620
1.961401	0.239375	1620.07
2.161401	0.239375	1621.59
-1.838599	0.439375	1623.28
-1.638599	0.439375	1621.81
-1.438599	0.439375	1621.63
-1.238599	0.439375	1621.57
-1.038599	0.439375	1620.81
-0.838599	0.439375	1620.34
-0.638599	0.439375	1620.72
-0.438599	0.439375	1620.18
-0.238599	0.439375	1621.02
-0.038599	0.439375	1621.81
0.161401	0.439375	1621.23
0.361401	0.439375	1620.98
0.561401	0.439375	1621.68
0.761401	0.439375	1621.07
0.961401	0.439375	1619.86
1.161401	0.439375	1621.29
1.361401	0.439375	1621.64
1.561401	0.439375	1621.58
1.761401	0.439375	1619.53
1.961401	0.439375	1619.56
2.161401	0.439375	1621.32
-1.838599	0.639375	1620.77
-1.638599	0.639375	1622.17
-1.438599	0.639375	1621.72
-1.238599	0.639375	1621.42
-1.038599	0.639375	1621.72
-0.838599	0.639375	1621.61
-0.638599	0.639375	1620.46
-0.438599	0.639375	1622.38
-0.238599	0.639375	1621.24
-0.038599	0.639375	1621.29
0.161401	0.639375	1620.75
0.361401	0.639375	1621.08
0.561401	0.639375	1620.72
0.761401	0.639375	1621.54
0.961401	0.639375	1619.21
1.161401	0.639375	1620.31
1.361401	0.639375	1620.78
1.561401	0.639375	1621.93
1.761401	0.639375	1621.34
1.961401	0.639375	1620.97
2.161401	0.639375	1620.08
-1.838599	0.839375	1626.37
-1.638599	0.839375	1622.63
-1.438599	0.839375	1621.6
-1.238599	0.839375	1621.61
-1.038599	0.839375	1621.4
-0.838599	0.839375	1620.64
-0.638599	0.839375	1623.06
-0.438599	0.839375	1620.73
-0.238599	0.839375	1621.61
-0.038599	0.839375	1621.45
0.161401	0.839375	1622.18
0.361401	0.839375	1622.55
0.561401	0.839375	1623.58
0.761401	0.839375	1622.26
0.961401	0.839375	1621
1.161401	0.839375	1622.31
1.361401	0.839375	1622.11
1.561401	0.839375	1622.8
1.761401	0.839375	1625.04
1.961401	0.839375	1624.3
2.161401	0.839375	1621.91
-1.838599	1.039375	1617.57
-1.638599	1.039375	1617.51
-1.438599	1.039375	1622.74
-1.238599	1.039375	1622.27
-1.038599	1.039375	1621.26
-0.838599	1.039375	1622.11
-0.638599	1.039375	1621.9
-0.438599	1.039375	1622.66
-0.238599	1.039375	1622.85
-0.038599	1.039375	1620.77
0.161401	1.039375	1623.2
0.361401	1.039375	1619.61
0.561401	1.039375	1620.19
0.761401	1.039375	1618.51
0.961401	1.039375	1617.83
1.161401	1.039375	1625.85
1.361401	1.039375	1623.81
1.561401	1.039375	1624.52
1.761401	1.039375	1623.17
1.961401	1.039375	1623.18
2.161401	1.039375	1619.27
-1.838599	1.239375	1627.3
-1.638599	1.239375	1626.16
-1.438599	1.239375	1620.88
-1.238599	1.239375	1622.73
-1.038599	1.239375	1622.09
-0.838599	1.239375	1622.74
-0.638599	1.239375	1622.14
-0.438599	1.239375	1622.66
-0.238599	1.239375	1624.59
-0.038599	1.239375	1625.14
0.161401	1.239375	1620.91
0.361401	1.239375	1624.36
0.561401	1.239375	1727.37
0.761401	1.239375	1622.77
0.961401	1.239375	1625.07
1.161401	1.239375	1536.23
1.361401	1.239375	1608.99
1.561401	1.239375	1617.99
1.761401	1.239375	1622.02
1.961401	1.239375	1622.03
2.161401	1.239375	1631.48
-1.838599	1.439375	1620.48
-1.638599	1.439375	1622.99
-1.438599	1.439375	1621.81
-1.238599	1.439375	1623.18
-1.038599	1.439375	1621.77
-0.838599	1.439375	1622.23
-0.638599	1.439375	1621.23
-0.438599	1.439375	1624.43
-0.238599	1.439375	1623.96
-0.038599	1.439375	2986.05
0.161401	1.439375	1624.76
0.361401	1.439375	1617.73
0.561401	1.439375	1644.28
0.761401	1.439375	1617.69
0.961401	1.439375	1582.31
1.161401	1.439375	1615.53
1.361401	1.439375	1613.38
1.561401	1.439375	1622.84
1.761401	1.439375	1617.48
1.961401	1.439375	1549.31
2.161401	1.439375	1620.07
-1.838599	1.639375	1629.35
-1.638599	1.639375	1436.58
-1.438599	1.639375	1621.34
-1.238599	1.639375	1622.12
-1.038599	1.639375	1623.47
-0.838599	1.639375	1619.5
-0.638599	1.639375	1620.49
-0.438599	1.639375	1628.85
-0.238599	1.639375	1625.4
-0.038599	1.639375	1615.52
0.161401	1.639375	1621.26
0.361401	1.639375	1622.43
0.561401	1.639375	1627.12
0.761401	1.639375	1640.28
0.961401	1.639375	1631.32
1.161401	1.639375	1622.97
1.361401	1.639375	1623.8
1.561401	1.639375	1627.1
1.761401	1.639375	1619.58
1.961401	1.639375	1625.21
2.161401	1.639375	1621.73
-1.838599	1.839375	1631.66
-1.638599	1.839375	1622.41
-1.438599	1.839375	1632.13
-1.238599	1.839375	1601.21
-1.038599	1.839375	1608.18
-0.838599	1.839375	1620.82
-0.638599	1.839375	1616.34
-0.438599	1.839375	1633.14
-0.238599	1.839375	1627.4
-0.038599	1.839375	1624.49
0.161401	1.839375	1201.7
0.361401	1.839375	1603.91
0.561401	1.839375	1630.8
0.761401	1.839375	1638.55
0.961401	1.839375	1622.52
1.161401	1.839375	1617.77
1.361401	1.839375	1614.94
1.561401	1.839375	1614.83
1.761401	1.839375	1624.22
1.961401	1.839375	1618.57
2.161401	1.839375	1615.88
-1.838599	2.039375	26.1874
-1.638599	2.039375	1621.98
-1.438599	2.039375	1621.38
-1.238599	2.039375	1626.15
-1.038599	2.039375	1618.7
-0.838599	2.039375	1620.9
-0.638599	2.039375	1625.1
-0.438599	2.039375	1677.55
-0.238599	2.039375	1542.11
-0.038599	2.039375	-2935.93
0.161401	2.039375	1632.35
0.361401	2.039375	1629.76
0.561401	2.039375	1625.86
0.761401	2.039375	1616.68
0.961401	2.039375	1617.92
1.161401	2.039375	1620.62
1.361401	2.039375	1619.53
1.561401	2.039375	1617.56
1.761401	2.039375	1620.93
1.961401	2.039375	1617.99
2.161401	2.039375	1616.6
-1.838599	2.239375	1622.35
-1.638599	2.239375	1428.42
-1.438599	2.239375	1813.6
-1.238599	2.239375	1726.58
-1.038599	2.239375	1636.24
-0.838599	2.239375	1666.34
-0.638599	2.239375	1620.9
-0.438599	2.239375	1622.37
-0.238599	2.239375	1618.75
-0.038599	2.239375	1618.59
0.161401	2.239375	1616.9
0.361401	2.239375	1614.21
0.561401	2.239375	1618.47
0.761401	2.239375	1621.29
0.961401	2.239375	1619.01
1.161401	2.239375	1620.23
1.361401	2.239375	1619.63
1.561401	2.239375	1620.3
1.761401	2.239375	1621.98
1.961401	2.239375	1619.18
2.161401	2.239375	1623.99