File: data/derived_data/raman/20171207_GrNH2_from_20171130/20171207_GrNH2_map_1/G FWHM.txt
#XList		#YList		#IList
-1.838599	-0.760625	43.5569
-1.638599	-0.760625	38.3234
-1.438599	-0.760625	32.8245
-1.238599	-0.760625	35.0604
-1.038599	-0.760625	36.5819
-0.838599	-0.760625	35.2618
-0.638599	-0.760625	33.7448
-0.438599	-0.760625	33.8361
-0.238599	-0.760625	27.2203
-0.038599	-0.760625	28.9637
0.161401	-0.760625	30.1383
0.361401	-0.760625	36.0648
0.561401	-0.760625	40.5732
0.761401	-0.760625	39.8202
0.961401	-0.760625	45.0699
1.161401	-0.760625	46.8099
1.361401	-0.760625	44.5503
1.561401	-0.760625	44.5358
1.761401	-0.760625	48.4439
1.961401	-0.760625	48.875
2.161401	-0.760625	43.6206
-1.838599	-0.560625	40.1042
-1.638599	-0.560625	36.658
-1.438599	-0.560625	33.8834
-1.238599	-0.560625	32.9093
-1.038599	-0.560625	33.5128
-0.838599	-0.560625	35.3544
-0.638599	-0.560625	37.8075
-0.438599	-0.560625	35.8521
-0.238599	-0.560625	30.2155
-0.038599	-0.560625	24.3146
0.161401	-0.560625	25.3636
0.361401	-0.560625	29.2376
0.561401	-0.560625	33.6936
0.761401	-0.560625	36.5955
0.961401	-0.560625	41.909
1.161401	-0.560625	47.0328
1.361401	-0.560625	48.7003
1.561401	-0.560625	46.3233
1.761401	-0.560625	50.0379
1.961401	-0.560625	39.751
2.161401	-0.560625	40.0616
-1.838599	-0.360625	39.2273
-1.638599	-0.360625	37.8656
-1.438599	-0.360625	34.0497
-1.238599	-0.360625	35.5677
-1.038599	-0.360625	35.1297
-0.838599	-0.360625	34.4747
-0.638599	-0.360625	35.574
-0.438599	-0.360625	36.0674
-0.238599	-0.360625	28.701
-0.038599	-0.360625	27.2398
0.161401	-0.360625	25.7032
0.361401	-0.360625	28.0242
0.561401	-0.360625	28.5258
0.761401	-0.360625	30.4446
0.961401	-0.360625	36.1891
1.161401	-0.360625	44.2977
1.361401	-0.360625	47.039
1.561401	-0.360625	46.6394
1.761401	-0.360625	50.2651
1.961401	-0.360625	51.1287
2.161401	-0.360625	42.3006
-1.838599	-0.160625	40.6832
-1.638599	-0.160625	37.6964
-1.438599	-0.160625	35.1085
-1.238599	-0.160625	37.0104
-1.038599	-0.160625	35.8047
-0.838599	-0.160625	34.3382
-0.638599	-0.160625	36.472
-0.438599	-0.160625	36.0148
-0.238599	-0.160625	32.905
-0.038599	-0.160625	25.8358
0.161401	-0.160625	27.3061
0.361401	-0.160625	26.8155
0.561401	-0.160625	27.2642
0.761401	-0.160625	29.4028
0.961401	-0.160625	34.8622
1.161401	-0.160625	44.0341
1.361401	-0.160625	48.4464
1.561401	-0.160625	49.1398
1.761401	-0.160625	50.2233
1.961401	-0.160625	57.6822
2.161401	-0.160625	56.4853
-1.838599	0.039375	39.455
-1.638599	0.039375	40.1627
-1.438599	0.039375	36.3655
-1.238599	0.039375	37.88
-1.038599	0.039375	36.456
-0.838599	0.039375	36.6981
-0.638599	0.039375	37.987
-0.438599	0.039375	37.8877
-0.238599	0.039375	37.3676
-0.038599	0.039375	31.0748
0.161401	0.039375	28.6935
0.361401	0.039375	29.2535
0.561401	0.039375	30.1179
0.761401	0.039375	28.5582
0.961401	0.039375	35.9104
1.161401	0.039375	41.874
1.361401	0.039375	46.9404
1.561401	0.039375	45.4382
1.761401	0.039375	45.4895
1.961401	0.039375	48.4824
2.161401	0.039375	49.5671
-1.838599	0.239375	38.8562
-1.638599	0.239375	33.4359
-1.438599	0.239375	30.3058
-1.238599	0.239375	34.0332
-1.038599	0.239375	35.6042
-0.838599	0.239375	33.8006
-0.638599	0.239375	35.3504
-0.438599	0.239375	36.4647
-0.238599	0.239375	38.4704
-0.038599	0.239375	36.6939
0.161401	0.239375	35.7246
0.361401	0.239375	37.5606
0.561401	0.239375	34.4395
0.761401	0.239375	33.7623
0.961401	0.239375	37.5414
1.161401	0.239375	43.205
1.361401	0.239375	43.6211
1.561401	0.239375	44.0706
1.761401	0.239375	42.9836
1.961401	0.239375	45.4569
2.161401	0.239375	47.3078
-1.838599	0.439375	32.2029
-1.638599	0.439375	32.2723
-1.438599	0.439375	33.1757
-1.238599	0.439375	32.7294
-1.038599	0.439375	33.6761
-0.838599	0.439375	33.6538
-0.638599	0.439375	33.9978
-0.438599	0.439375	34.6192
-0.238599	0.439375	37.5706
-0.038599	0.439375	41.2381
0.161401	0.439375	43.1543
0.361401	0.439375	45.2498
0.561401	0.439375	42.9648
0.761401	0.439375	39.071
0.961401	0.439375	40.8188
1.161401	0.439375	46.7013
1.361401	0.439375	44.454
1.561401	0.439375	44.7496
1.761401	0.439375	43.5878
1.961401	0.439375	45.045
2.161401	0.439375	48.1139
-1.838599	0.639375	33.2732
-1.638599	0.639375	33.8849
-1.438599	0.639375	34.2903
-1.238599	0.639375	35.1851
-1.038599	0.639375	37.0027
-0.838599	0.639375	35.1967
-0.638599	0.639375	34.0999
-0.438599	0.639375	39.5505
-0.238599	0.639375	41.2896
-0.038599	0.639375	41.2264
0.161401	0.639375	45.1742
0.361401	0.639375	46.1057
0.561401	0.639375	45.5488
0.761401	0.639375	41.8689
0.961401	0.639375	40.0117
1.161401	0.639375	44.997
1.361401	0.639375	48.0074
1.561401	0.639375	42.7811
1.761401	0.639375	46.9871
1.961401	0.639375	45.0773
2.161401	0.639375	46.3978
-1.838599	0.839375	40.065
-1.638599	0.839375	31.7877
-1.438599	0.839375	35.0544
-1.238599	0.839375	35.3957
-1.038599	0.839375	38.5713
-0.838599	0.839375	36.4069
-0.638599	0.839375	37.9709
-0.438599	0.839375	40.8973
-0.238599	0.839375	43.3516
-0.038599	0.839375	44.0328
0.161401	0.839375	43.6582
0.361401	0.839375	44.5525
0.561401	0.839375	49.3576
0.761401	0.839375	45.8868
0.961401	0.839375	44.0849
1.161401	0.839375	46.454
1.361401	0.839375	47.4399
1.561401	0.839375	41.84
1.761401	0.839375	45.5769
1.961401	0.839375	50.2174
2.161401	0.839375	47.2761
-1.838599	1.039375	13.7521
-1.638599	1.039375	29.643
-1.438599	1.039375	36.5983
-1.238599	1.039375	37.7084
-1.038599	1.039375	38.8835
-0.838599	1.039375	41.6013
-0.638599	1.039375	41.8047
-0.438599	1.039375	42.5058
-0.238599	1.039375	43.2781
-0.038599	1.039375	43.9743
0.161401	1.039375	44.4907
0.361401	1.039375	37.4479
0.561401	1.039375	42.4656
0.761401	1.039375	50.5759
0.961401	1.039375	43.923
1.161401	1.039375	55.9747
1.361401	1.039375	49.162
1.561401	1.039375	59.6586
1.761401	1.039375	40.88
1.961401	1.039375	54.4086
2.161401	1.039375	44.5121
-1.838599	1.239375	20.9467
-1.638599	1.239375	35.3927
-1.438599	1.239375	32.7975
-1.238599	1.239375	38.1215
-1.038599	1.239375	39.5116
-0.838599	1.239375	40.4776
-0.638599	1.239375	41.6112
-0.438599	1.239375	42.4146
-0.238599	1.239375	44.4165
-0.038599	1.239375	45.7572
0.161401	1.239375	49.4052
0.361401	1.239375	46.6786
0.561401	1.239375	60.4997
0.761401	1.239375	43.8047
0.961401	1.239375	34.2863
1.161401	1.239375	45.1452
1.361401	1.239375	32.4873
1.561401	1.239375	37.2415
1.761401	1.239375	72.6441
1.961401	1.239375	46.7404
2.161401	1.239375	47.2219
-1.838599	1.439375	47.8961
-1.638599	1.439375	34.7621
-1.438599	1.439375	37.0164
-1.238599	1.439375	36.8172
-1.038599	1.439375	33.8073
-0.838599	1.439375	36.349
-0.638599	1.439375	29.0903
-0.438599	1.439375	39.9894
-0.238599	1.439375	26.4327
-0.038599	1.439375	48.8607
0.161401	1.439375	51.2272
0.361401	1.439375	102.377
0.561401	1.439375	52.9469
0.761401	1.439375	66.5957
0.961401	1.439375	54.4971
1.161401	1.439375	55.2578
1.361401	1.439375	47.1778
1.561401	1.439375	46.0396
1.761401	1.439375	43.6933
1.961401	1.439375	44.1745
2.161401	1.439375	82.2257
-1.838599	1.639375	139.586
-1.638599	1.639375	43.7386
-1.438599	1.639375	35.1695
-1.238599	1.639375	39.1983
-1.038599	1.639375	30.0625
-0.838599	1.639375	25.858
-0.638599	1.639375	49.2336
-0.438599	1.639375	46.3344
-0.238599	1.639375	110.502
-0.038599	1.639375	46.795
0.161401	1.639375	25.9321
0.361401	1.639375	60.7853
0.561401	1.639375	56.1717
0.761401	1.639375	72.3084
0.961401	1.639375	65.2065
1.161401	1.639375	58.8672
1.361401	1.639375	51.5799
1.561401	1.639375	54.769
1.761401	1.639375	51.9605
1.961401	1.639375	45.2482
2.161401	1.639375	64.2794
-1.838599	1.839375	90.1916
-1.638599	1.839375	41.9985
-1.438599	1.839375	20.2001
-1.238599	1.839375	38.184
-1.038599	1.839375	5.413755
-0.838599	1.839375	22.8972
-0.638599	1.839375	45.7023
-0.438599	1.839375	32.9832
-0.238599	1.839375	31.6131
-0.038599	1.839375	2.428104
0.161401	1.839375	3.519493
0.361401	1.839375	51.5468
0.561401	1.839375	85.3891
0.761401	1.839375	71.4743
0.961401	1.839375	56.1849
1.161401	1.839375	56.2041
1.361401	1.839375	61.31
1.561401	1.839375	58.7643
1.761401	1.839375	47.1301
1.961401	1.839375	50.1077
2.161401	1.839375	28.3643
-1.838599	2.039375	68.6798
-1.638599	2.039375	17.8634
-1.438599	2.039375	43.4498
-1.238599	2.039375	2.004857
-1.038599	2.039375	4.621848
-0.838599	2.039375	61.2129
-0.638599	2.039375	61.4137
-0.438599	2.039375	202.077
-0.238599	2.039375	520.514
-0.038599	2.039375	42.0395
0.161401	2.039375	42.7524
0.361401	2.039375	47.7485
0.561401	2.039375	60.8536
0.761401	2.039375	60.7197
0.961401	2.039375	56.8604
1.161401	2.039375	52.532
1.361401	2.039375	51.322
1.561401	2.039375	49.2428
1.761401	2.039375	54.0533
1.961401	2.039375	36.6547
2.161401	2.039375	33.7471
-1.838599	2.239375	2595.04
-1.638599	2.239375	2595.04
-1.438599	2.239375	1.982782
-1.238599	2.239375	31.176
-1.038599	2.239375	0.639804
-0.838599	2.239375	3.780196
-0.638599	2.239375	0.639804
-0.438599	2.239375	36.634
-0.238599	2.239375	30.6575
-0.038599	2.239375	46.8297
0.161401	2.239375	20.9869
0.361401	2.239375	54.7718
0.561401	2.239375	60.1419
0.761401	2.239375	54.4821
0.961401	2.239375	48.4753
1.161401	2.239375	48.0709
1.361401	2.239375	47.828
1.561401	2.239375	47.356
1.761401	2.239375	45.3755
1.961401	2.239375	34.4079
2.161401	2.239375	37.1754