File: data/derived_data/raman/20171207_GrNH2_from_20171130/20171207_GrNH2_map_1/G int.txt
#XList		#YList		#IList
-1.838599	-0.760625	259.435
-1.638599	-0.760625	358.291
-1.438599	-0.760625	411.943
-1.238599	-0.760625	416.553
-1.038599	-0.760625	416.532
-0.838599	-0.760625	422.01
-0.638599	-0.760625	437.235
-0.438599	-0.760625	472.781
-0.238599	-0.760625	536.379
-0.038599	-0.760625	543.756
0.161401	-0.760625	537.096
0.361401	-0.760625	578.915
0.561401	-0.760625	619.064
0.761401	-0.760625	527.958
0.961401	-0.760625	383.792
1.161401	-0.760625	344.208
1.361401	-0.760625	362.236
1.561401	-0.760625	303.394
1.761401	-0.760625	139.894
1.961401	-0.760625	104.954
2.161401	-0.760625	196.28
-1.838599	-0.560625	330.906
-1.638599	-0.560625	415.239
-1.438599	-0.560625	427.458
-1.238599	-0.560625	442.945
-1.038599	-0.560625	425.886
-0.838599	-0.560625	418.184
-0.638599	-0.560625	417.12
-0.438599	-0.560625	420.63
-0.238599	-0.560625	467.875
-0.038599	-0.560625	544.47
0.161401	-0.560625	585.017
0.361401	-0.560625	621.51
0.561401	-0.560625	605.193
0.761401	-0.560625	501.475
0.961401	-0.560625	401.073
1.161401	-0.560625	362.406
1.361401	-0.560625	332.632
1.561401	-0.560625	269.918
1.761401	-0.560625	133.327
1.961401	-0.560625	99.8849
2.161401	-0.560625	169.571
-1.838599	-0.360625	362.605
-1.638599	-0.360625	449.231
-1.438599	-0.360625	433.137
-1.238599	-0.360625	443.501
-1.038599	-0.360625	425.274
-0.838599	-0.360625	397.835
-0.638599	-0.360625	387.059
-0.438599	-0.360625	392.693
-0.238599	-0.360625	438.364
-0.038599	-0.360625	495.769
0.161401	-0.360625	572.762
0.361401	-0.360625	608.331
0.561401	-0.360625	612.807
0.761401	-0.360625	525.536
0.961401	-0.360625	434.632
1.161401	-0.360625	349.474
1.361401	-0.360625	266.47
1.561401	-0.360625	181.491
1.761401	-0.360625	92.0983
1.961401	-0.360625	67.2551
2.161401	-0.360625	85.8948
-1.838599	-0.160625	283.058
-1.638599	-0.160625	431.571
-1.438599	-0.160625	389.982
-1.238599	-0.160625	385.478
-1.038599	-0.160625	404.06
-0.838599	-0.160625	394.146
-0.638599	-0.160625	380.607
-0.438599	-0.160625	393.721
-0.238599	-0.160625	410.487
-0.038599	-0.160625	489.17
0.161401	-0.160625	543.594
0.361401	-0.160625	589.527
0.561401	-0.160625	604.629
0.761401	-0.160625	517.601
0.961401	-0.160625	447.483
1.161401	-0.160625	326.241
1.361401	-0.160625	215.57
1.561401	-0.160625	143.04
1.761401	-0.160625	115.446
1.961401	-0.160625	84.0596
2.161401	-0.160625	61.0993
-1.838599	0.039375	170.874
-1.638599	0.039375	334.492
-1.438599	0.039375	356.309
-1.238599	0.039375	359.92
-1.038599	0.039375	391.579
-0.838599	0.039375	386.182
-0.638599	0.039375	378.123
-0.438599	0.039375	385.98
-0.238599	0.039375	385.232
-0.038599	0.039375	432.655
0.161401	0.039375	487.178
0.361401	0.039375	504.363
0.561401	0.039375	529.271
0.761401	0.039375	505.447
0.961401	0.039375	434.618
1.161401	0.039375	338.422
1.361401	0.039375	234.956
1.561401	0.039375	240.129
1.761401	0.039375	299.148
1.961401	0.039375	235.078
2.161401	0.039375	154.29
-1.838599	0.239375	119.667
-1.638599	0.239375	303.516
-1.438599	0.239375	371.316
-1.238599	0.239375	366.594
-1.038599	0.239375	393.205
-0.838599	0.239375	411.255
-0.638599	0.239375	403.502
-0.438599	0.239375	400.992
-0.238599	0.239375	387.848
-0.038599	0.239375	377.936
0.161401	0.239375	403.119
0.361401	0.239375	407.735
0.561401	0.239375	439.687
0.761401	0.239375	440.721
0.961401	0.239375	418.329
1.161401	0.239375	341.046
1.361401	0.239375	280.117
1.561401	0.239375	419.245
1.761401	0.239375	589.564
1.961401	0.239375	516.67
2.161401	0.239375	358.586
-1.838599	0.439375	85.9738
-1.638599	0.439375	245.586
-1.438599	0.439375	354.051
-1.238599	0.439375	372.609
-1.038599	0.439375	383.034
-0.838599	0.439375	407.747
-0.638599	0.439375	393.84
-0.438599	0.439375	385.315
-0.238599	0.439375	388.165
-0.038599	0.439375	370.229
0.161401	0.439375	358.017
0.361401	0.439375	349.301
0.561401	0.439375	347.709
0.761401	0.439375	370.735
0.961401	0.439375	375.968
1.161401	0.439375	358.156
1.361401	0.439375	263.35
1.561401	0.439375	327.967
1.761401	0.439375	533.259
1.961401	0.439375	598.792
2.161401	0.439375	465.254
-1.838599	0.639375	52.6623
-1.638599	0.639375	189.728
-1.438599	0.639375	327.433
-1.238599	0.639375	352.719
-1.038599	0.639375	353.2
-0.838599	0.639375	374.837
-0.638599	0.639375	374.626
-0.438599	0.639375	369.453
-0.238599	0.639375	338.487
-0.038599	0.639375	333.055
0.161401	0.639375	293.28
0.361401	0.639375	247.095
0.561401	0.639375	223.852
0.761401	0.639375	243.163
0.961401	0.639375	269.436
1.161401	0.639375	279.191
1.361401	0.639375	198.637
1.561401	0.639375	127.746
1.761401	0.639375	192.573
1.961401	0.639375	293.428
2.161401	0.639375	310.587
-1.838599	0.839375	20.1836
-1.638599	0.839375	118.677
-1.438599	0.839375	252.167
-1.238599	0.839375	319.134
-1.038599	0.839375	320.474
-0.838599	0.839375	332.041
-0.638599	0.839375	342.819
-0.438599	0.839375	317.834
-0.238599	0.839375	268.853
-0.038599	0.839375	221.397
0.161401	0.839375	178.589
0.361401	0.839375	124.741
0.561401	0.839375	89.563
0.761401	0.839375	86.3136
0.961401	0.839375	108.992
1.161401	0.839375	141.033
1.361401	0.839375	116.072
1.561401	0.839375	61.9139
1.761401	0.839375	52.6928
1.961401	0.839375	70.1528
2.161401	0.839375	103.805
-1.838599	1.039375	12.7291
-1.638599	1.039375	49.8797
-1.438599	1.039375	159.017
-1.238599	1.039375	252.435
-1.038599	1.039375	270.981
-0.838599	1.039375	271.391
-0.638599	1.039375	245.688
-0.438599	1.039375	208.038
-0.238599	1.039375	155.899
-0.038599	1.039375	96.1171
0.161401	1.039375	64.0496
0.361401	1.039375	39.5387
0.561401	1.039375	24.902
0.761401	1.039375	19.6258
0.961401	1.039375	28.8296
1.161401	1.039375	41.8662
1.361401	1.039375	45.4616
1.561401	1.039375	23.8597
1.761401	1.039375	19.8344
1.961401	1.039375	23.3499
2.161401	1.039375	24.3879
-1.838599	1.239375	4.539176
-1.638599	1.239375	17.9079
-1.438599	1.239375	79.4623
-1.238599	1.239375	159.357
-1.038599	1.239375	194.882
-0.838599	1.239375	168.57
-0.638599	1.239375	125.69
-0.438599	1.239375	86.9508
-0.238599	1.239375	56.2681
-0.038599	1.239375	27.7582
0.161401	1.239375	14.3144
0.361401	1.239375	12.4327
0.561401	1.239375	12.4921
0.761401	1.239375	13.7692
0.961401	1.239375	17.0067
1.161401	1.239375	16.3036
1.361401	1.239375	11.8375
1.561401	1.239375	15.089
1.761401	1.239375	11.8353
1.961401	1.239375	13.6757
2.161401	1.239375	13.999
-1.838599	1.439375	2.309841
-1.638599	1.439375	10.0638
-1.438599	1.439375	23.7054
-1.238599	1.439375	66.3996
-1.038599	1.439375	90.6233
-0.838599	1.439375	64.3825
-0.638599	1.439375	47.0022
-0.438599	1.439375	27.1418
-0.238599	1.439375	18.3848
-0.038599	1.439375	11.5352
0.161401	1.439375	5.975905
0.361401	1.439375	5.726817
0.561401	1.439375	10.478
0.761401	1.439375	10.9097
0.961401	1.439375	15.3794
1.161401	1.439375	17.0453
1.361401	1.439375	14.08
1.561401	1.439375	14.7309
1.761401	1.439375	14.3759
1.961401	1.439375	10.1349
2.161401	1.439375	8.141441
-1.838599	1.639375	0.867049
-1.638599	1.639375	4.026074
-1.438599	1.639375	8.234948
-1.238599	1.639375	13.064
-1.038599	1.639375	21.1528
-0.838599	1.639375	15.1679
-0.638599	1.639375	11.8245
-0.438599	1.639375	10.3558
-0.238599	1.639375	5.668180
-0.038599	1.639375	5.900039
0.161401	1.639375	7.142365
0.361401	1.639375	6.592963
0.561401	1.639375	10.952
0.761401	1.639375	16.4798
0.961401	1.639375	28.5024
1.161401	1.639375	33.5129
1.361401	1.639375	33.3941
1.561401	1.639375	23.9107
1.761401	1.639375	18.7103
1.961401	1.639375	10.8776
2.161401	1.639375	9.357688
-1.838599	1.839375	1.703787
-1.638599	1.839375	3.471019
-1.438599	1.839375	6.025995
-1.238599	1.839375	5.584720
-1.038599	1.839375	6.598726
-0.838599	1.839375	7.557002
-0.638599	1.839375	3.430042
-0.438599	1.839375	5.455130
-0.238599	1.839375	3.603389
-0.038599	1.839375	9.728315
0.161401	1.839375	6.333776
0.361401	1.839375	7.043858
0.561401	1.839375	12.4518
0.761401	1.839375	29.6534
0.961401	1.839375	53.6726
1.161401	1.839375	68.8165
1.361401	1.839375	60.9971
1.561401	1.839375	39.6164
1.761401	1.839375	29.1454
1.961401	1.839375	20.4682
2.161401	1.839375	14.9192
-1.838599	2.039375	0.822149
-1.638599	2.039375	3.103897
-1.438599	2.039375	0.466654
-1.238599	2.039375	10.9416
-1.038599	2.039375	5.580694
-0.838599	2.039375	2.585042
-0.638599	2.039375	2.885986
-0.438599	2.039375	2.242481
-0.238599	2.039375	1.929682
-0.038599	2.039375	5.434343
0.161401	2.039375	4.855550
0.361401	2.039375	8.182502
0.561401	2.039375	22.0638
0.761401	2.039375	45.386
0.961401	2.039375	122.488
1.161401	2.039375	192.991
1.361401	2.039375	187.008
1.561401	2.039375	99.4798
1.761401	2.039375	53.6282
1.961401	2.039375	32.9039
2.161401	2.039375	27.029
-1.838599	2.239375	0.818008
-1.638599	2.239375	-1e+10
-1.438599	2.239375	-6.154667
-1.238599	2.239375	3.150865
-1.038599	2.239375	6.174234
-0.838599	2.239375	-2.766951
-0.638599	2.239375	-4.607386
-0.438599	2.239375	2.551292
-0.238599	2.239375	5.420962
-0.038599	2.239375	4.668082
0.161401	2.239375	9.851490
0.361401	2.239375	12.5856
0.561401	2.239375	32.2167
0.761401	2.239375	103.844
0.961401	2.239375	241.837
1.161401	2.239375	402.781
1.361401	2.239375	418.216
1.561401	2.239375	251.03
1.761401	2.239375	103.364
1.961401	2.239375	68.6784
2.161401	2.239375	50.8007