File: data/derived_data/raman/20171207_GrNH2_from_20171130/20171207_GrNH2_map_1/G pos.txt
#XList		#YList		#IList
-1.838599	-0.760625	1588.51
-1.638599	-0.760625	1587.01
-1.438599	-0.760625	1586.3
-1.238599	-0.760625	1586.36
-1.038599	-0.760625	1586.6
-0.838599	-0.760625	1586.34
-0.638599	-0.760625	1585.9
-0.438599	-0.760625	1585.89
-0.238599	-0.760625	1584.36
-0.038599	-0.760625	1584.3
0.161401	-0.760625	1584.35
0.361401	-0.760625	1585.3
0.561401	-0.760625	1586.15
0.761401	-0.760625	1586.23
0.961401	-0.760625	1588.94
1.161401	-0.760625	1589.42
1.361401	-0.760625	1589.1
1.561401	-0.760625	1588.65
1.761401	-0.760625	1588.12
1.961401	-0.760625	1588.9
2.161401	-0.760625	1586.56
-1.838599	-0.560625	1587.15
-1.638599	-0.560625	1586.64
-1.438599	-0.560625	1586.47
-1.238599	-0.560625	1586.11
-1.038599	-0.560625	1585.94
-0.838599	-0.560625	1586.88
-0.638599	-0.560625	1587.7
-0.438599	-0.560625	1586.71
-0.238599	-0.560625	1584.81
-0.038599	-0.560625	1583.57
0.161401	-0.560625	1583.78
0.361401	-0.560625	1584.19
0.561401	-0.560625	1584.95
0.761401	-0.560625	1586.08
0.961401	-0.560625	1588.05
1.161401	-0.560625	1590.55
1.361401	-0.560625	1589.61
1.561401	-0.560625	1590.24
1.761401	-0.560625	1589.89
1.961401	-0.560625	1587.88
2.161401	-0.560625	1586.62
-1.838599	-0.360625	1586.87
-1.638599	-0.360625	1586.9
-1.438599	-0.360625	1586.36
-1.238599	-0.360625	1586.35
-1.038599	-0.360625	1586.23
-0.838599	-0.360625	1586.76
-0.638599	-0.360625	1587.25
-0.438599	-0.360625	1586.85
-0.238599	-0.360625	1584.98
-0.038599	-0.360625	1584.1
0.161401	-0.360625	1584.31
0.361401	-0.360625	1584.56
0.561401	-0.360625	1583.87
0.761401	-0.360625	1584.48
0.961401	-0.360625	1585.83
1.161401	-0.360625	1588.93
1.361401	-0.360625	1589.51
1.561401	-0.360625	1590.65
1.761401	-0.360625	1590.64
1.961401	-0.360625	1589.48
2.161401	-0.360625	1586.45
-1.838599	-0.160625	1587.15
-1.638599	-0.160625	1586.38
-1.438599	-0.160625	1586.63
-1.238599	-0.160625	1587.28
-1.038599	-0.160625	1586.73
-0.838599	-0.160625	1586.09
-0.638599	-0.160625	1587.28
-0.438599	-0.160625	1587.15
-0.238599	-0.160625	1585.67
-0.038599	-0.160625	1584.33
0.161401	-0.160625	1584.28
0.361401	-0.160625	1584.22
0.561401	-0.160625	1584.17
0.761401	-0.160625	1584.05
0.961401	-0.160625	1585.75
1.161401	-0.160625	1587.9
1.361401	-0.160625	1590.24
1.561401	-0.160625	1589.34
1.761401	-0.160625	1590.07
1.961401	-0.160625	1588.33
2.161401	-0.160625	1588.4
-1.838599	0.039375	1587.84
-1.638599	0.039375	1587.63
-1.438599	0.039375	1587.51
-1.238599	0.039375	1587.39
-1.038599	0.039375	1587.01
-0.838599	0.039375	1586.56
-0.638599	0.039375	1587.08
-0.438599	0.039375	1587.14
-0.238599	0.039375	1587.1
-0.038599	0.039375	1585.2
0.161401	0.039375	1584.67
0.361401	0.039375	1584.33
0.561401	0.039375	1584.6
0.761401	0.039375	1584.14
0.961401	0.039375	1586.07
1.161401	0.039375	1586.84
1.361401	0.039375	1589.16
1.561401	0.039375	1587.08
1.761401	0.039375	1586.47
1.961401	0.039375	1587.71
2.161401	0.039375	1587.7
-1.838599	0.239375	1588.09
-1.638599	0.239375	1586.49
-1.438599	0.239375	1585.87
-1.238599	0.239375	1586.6
-1.038599	0.239375	1586.58
-0.838599	0.239375	1586.09
-0.638599	0.239375	1586.22
-0.438599	0.239375	1586.6
-0.238599	0.239375	1586.67
-0.038599	0.239375	1586.08
0.161401	0.239375	1586.08
0.361401	0.239375	1586.13
0.561401	0.239375	1585.63
0.761401	0.239375	1585.44
0.961401	0.239375	1585.86
1.161401	0.239375	1586.87
1.361401	0.239375	1587.59
1.561401	0.239375	1584.43
1.761401	0.239375	1583.5
1.961401	0.239375	1584.99
2.161401	0.239375	1587.21
-1.838599	0.439375	1586.8
-1.638599	0.439375	1585.84
-1.438599	0.439375	1586.24
-1.238599	0.439375	1586.04
-1.038599	0.439375	1586.37
-0.838599	0.439375	1586.01
-0.638599	0.439375	1585.8
-0.438599	0.439375	1585.97
-0.238599	0.439375	1586.42
-0.038599	0.439375	1587.68
0.161401	0.439375	1588.2
0.361401	0.439375	1589.13
0.561401	0.439375	1587.81
0.761401	0.439375	1586.67
0.961401	0.439375	1587.52
1.161401	0.439375	1589.49
1.361401	0.439375	1588.59
1.561401	0.439375	1585.85
1.761401	0.439375	1583.64
1.961401	0.439375	1583.46
2.161401	0.439375	1586.48
-1.838599	0.639375	1587.33
-1.638599	0.639375	1586.41
-1.438599	0.639375	1586.06
-1.238599	0.639375	1586.09
-1.038599	0.639375	1587.13
-0.838599	0.639375	1586.52
-0.638599	0.639375	1586.2
-0.438599	0.639375	1587.58
-0.238599	0.639375	1587.59
-0.038599	0.639375	1588.25
0.161401	0.639375	1588.54
0.361401	0.639375	1589.67
0.561401	0.639375	1589.33
0.761401	0.639375	1587.82
0.961401	0.639375	1586.84
1.161401	0.639375	1588.64
1.361401	0.639375	1590.64
1.561401	0.639375	1587.91
1.761401	0.639375	1586.21
1.961401	0.639375	1585.85
2.161401	0.639375	1586.91
-1.838599	0.839375	1588.94
-1.638599	0.839375	1587.37
-1.438599	0.839375	1586.68
-1.238599	0.839375	1587.3
-1.038599	0.839375	1587.26
-0.838599	0.839375	1587.38
-0.638599	0.839375	1587.51
-0.438599	0.839375	1588.01
-0.238599	0.839375	1588.52
-0.038599	0.839375	1588.6
0.161401	0.839375	1588.64
0.361401	0.839375	1590.87
0.561401	0.839375	1591.69
0.761401	0.839375	1590.15
0.961401	0.839375	1589.27
1.161401	0.839375	1590.92
1.361401	0.839375	1591.41
1.561401	0.839375	1588.37
1.761401	0.839375	1588.83
1.961401	0.839375	1588.86
2.161401	0.839375	1589.78
-1.838599	1.039375	1584.92
-1.638599	1.039375	1587.01
-1.438599	1.039375	1587.46
-1.238599	1.039375	1587.36
-1.038599	1.039375	1588.44
-0.838599	1.039375	1588.69
-0.638599	1.039375	1588.09
-0.438599	1.039375	1588.65
-0.238599	1.039375	1589.4
-0.038599	1.039375	1588.83
0.161401	1.039375	1590.06
0.361401	1.039375	1587.51
0.561401	1.039375	1590.81
0.761401	1.039375	1589.85
0.961401	1.039375	1589.88
1.161401	1.039375	1594.49
1.361401	1.039375	1593.08
1.561401	1.039375	1591.19
1.761401	1.039375	1587.01
1.961401	1.039375	1587.02
2.161401	1.039375	1585.92
-1.838599	1.239375	1591.71
-1.638599	1.239375	1589.93
-1.438599	1.239375	1587.73
-1.238599	1.239375	1588.03
-1.038599	1.239375	1588.48
-0.838599	1.239375	1588.92
-0.638599	1.239375	1588.87
-0.438599	1.239375	1589.56
-0.238599	1.239375	1590.53
-0.038599	1.239375	1592.84
0.161401	1.239375	1589.91
0.361401	1.239375	1587.98
0.561401	1.239375	1593.29
0.761401	1.239375	1591.84
0.961401	1.239375	1593
1.161401	1.239375	1593.38
1.361401	1.239375	1587.41
1.561401	1.239375	1586.19
1.761401	1.239375	1586.33
1.961401	1.239375	1595.99
2.161401	1.239375	1590.21
-1.838599	1.439375	1567.13
-1.638599	1.439375	1590.6
-1.438599	1.439375	1589.71
-1.238599	1.439375	1588.38
-1.038599	1.439375	1586.76
-0.838599	1.439375	1587.36
-0.638599	1.439375	1588
-0.438599	1.439375	1589.89
-0.238599	1.439375	1592
-0.038599	1.439375	1590.52
0.161401	1.439375	1600.45
0.361401	1.439375	1573.99
0.561401	1.439375	1596.93
0.761401	1.439375	1589.78
0.961401	1.439375	1587.6
1.161401	1.439375	1583.55
1.361401	1.439375	1584.75
1.561401	1.439375	1593.08
1.761401	1.439375	1587.6
1.961401	1.439375	1586.65
2.161401	1.439375	1590.18
-1.838599	1.639375	1548.28
-1.638599	1.639375	1597.26
-1.438599	1.639375	1587.22
-1.238599	1.639375	1593.94
-1.038599	1.639375	1588.2
-0.838599	1.639375	1585.58
-0.638599	1.639375	1588.13
-0.438599	1.639375	1588.39
-0.238599	1.639375	1600.8
-0.038599	1.639375	1584.41
0.161401	1.639375	1597.1
0.361401	1.639375	1584.97
0.561401	1.639375	1590.02
0.761401	1.639375	1584.53
0.961401	1.639375	1592.57
1.161401	1.639375	1589.61
1.361401	1.639375	1586.87
1.561401	1.639375	1587.6
1.761401	1.639375	1593.51
1.961401	1.639375	1582.66
2.161401	1.639375	1589.97
-1.838599	1.839375	1576.3
-1.638599	1.839375	1584.16
-1.438599	1.839375	1594.37
-1.238599	1.839375	1590.82
-1.038599	1.839375	1582.88
-0.838599	1.839375	1585.72
-0.638599	1.839375	1593.4
-0.438599	1.839375	1579.07
-0.238599	1.839375	1599.98
-0.038599	1.839375	1601.1
0.161401	1.839375	1587.06
0.361401	1.839375	1595.41
0.561401	1.839375	1586.81
0.761401	1.839375	1590.79
0.961401	1.839375	1590.43
1.161401	1.839375	1585.42
1.361401	1.839375	1586.37
1.561401	1.839375	1583.84
1.761401	1.839375	1585.87
1.961401	1.839375	1584.77
2.161401	1.839375	1583.96
-1.838599	2.039375	1566.89
-1.638599	2.039375	1583.92
-1.438599	2.039375	1593.17
-1.238599	2.039375	1584.48
-1.038599	2.039375	1592.44
-0.838599	2.039375	1583.18
-0.638599	2.039375	1596.67
-0.438599	2.039375	1560.35
-0.238599	2.039375	1566.92
-0.038599	2.039375	1599.09
0.161401	2.039375	1597.76
0.361401	2.039375	1591.37
0.561401	2.039375	1593.69
0.761401	2.039375	1587.16
0.961401	2.039375	1587.43
1.161401	2.039375	1587.87
1.361401	2.039375	1588.1
1.561401	2.039375	1588.15
1.761401	2.039375	1587.81
1.961401	2.039375	1584.39
2.161401	2.039375	1586.05
-1.838599	2.239375	2997.44
-1.638599	2.239375	1e+10
-1.438599	2.239375	1719.64
-1.238599	2.239375	1662.76
-1.038599	2.239375	1588.47
-0.838599	2.239375	1587.28
-0.638599	2.239375	1596.61
-0.438599	2.239375	1609.5
-0.238599	2.239375	1593.78
-0.038599	2.239375	1595.32
0.161401	2.239375	1592.1
0.361401	2.239375	1585.48
0.561401	2.239375	1586.35
0.761401	2.239375	1589.61
0.961401	2.239375	1587.36
1.161401	2.239375	1586.83
1.361401	2.239375	1586.71
1.561401	2.239375	1588.28
1.761401	2.239375	1587.07
1.961401	2.239375	1585.75
2.161401	2.239375	1586.7