File: data/derived_data/raman/20171207_GrNH2_from_20171130/20171207_GrNH2_map_2_low_region_long_acq.txt
#X		#Y		#Wave		#Intensity
0.019300	0.000000	1539.12	10080.2
0.019300	0.000000	1525.89	8565.13
0.019300	0.000000	1512.64	7881.72
0.019300	0.000000	1499.37	7275.61
0.019300	0.000000	1486.06	7105.61
0.019300	0.000000	1472.73	6993.98
0.019300	0.000000	1459.37	6819.04
0.019300	0.000000	1445.98	7311.72
0.019300	0.000000	1432.56	7720.39
0.019300	0.000000	1419.12	8887.54
0.019300	0.000000	1405.65	11061.3
0.019300	0.000000	1392.15	14424.6
0.019300	0.000000	1378.62	21305.3
0.019300	0.000000	1365.06	32887.3
0.019300	0.000000	1351.48	39164.8
0.019300	0.000000	1337.87	31720.8
0.019300	0.000000	1324.22	23232.3
0.019300	0.000000	1310.55	16535.7
0.019300	0.000000	1296.85	12478
0.019300	0.000000	1283.12	9570.07
0.019300	0.000000	1269.37	7588.88
0.019300	0.000000	1255.58	6423.06
0.019300	0.000000	1241.77	5554.43
0.019300	0.000000	1227.92	4879.93
0.019300	0.000000	1214.05	4495.39
0.019300	0.000000	1200.15	4070.93
0.019300	0.000000	1186.21	3794.16
0.019300	0.000000	1172.25	3622.84
0.019300	0.000000	1158.26	3465.95
0.019300	0.000000	1144.24	3441
0.019300	0.000000	1130.19	3431.78
0.019300	0.000000	1116.11	2946.46
0.019300	0.000000	1102	2872.07
0.019300	0.000000	1087.86	2673.63
0.019300	0.000000	1073.7	2419.78
0.019300	0.000000	1059.49	2250.19
0.019300	0.000000	1045.27	2127.63
0.019300	0.000000	1031.01	2142.38
0.019300	0.000000	1016.71	2126.28
0.019300	0.000000	1002.39	2257.96
0.019300	0.000000	988.043	2810.21
0.019300	0.000000	973.66	3029.62
0.019300	0.000000	959.248	2884
0.019300	0.000000	944.803	2797.94
0.019300	0.000000	930.328	2057.42
0.019300	0.000000	915.822	1587.11
0.019300	0.000000	901.285	1551.57
0.019300	0.000000	886.717	1525.6
0.019300	0.000000	872.117	1495.97
0.019300	0.000000	857.484	1504.01
0.019300	0.000000	842.822	1508.26
0.019300	0.000000	828.127	1447.04
0.019300	0.000000	813.4	1496.14
0.019300	0.000000	798.643	1409.13
0.019300	0.000000	783.852	1361.49
0.019300	0.000000	769.027	1340
0.019300	0.000000	754.172	1313.03
0.019300	0.000000	739.285	1398.74
0.019300	0.000000	724.363	1266.79
0.019300	0.000000	709.41	1363.23
0.019300	0.000000	694.426	1376.73
0.019300	0.000000	679.406	1417.61
0.019300	0.000000	664.354	1440.03
0.019300	0.000000	649.268	1462.35
0.019300	0.000000	634.148	1370.08
0.019300	0.000000	618.996	1435.94
0.019300	0.000000	603.811	1387.52
0.019300	0.000000	588.59	1360.97
0.019300	0.000000	573.336	1345.32
0.019300	0.000000	558.049	1424.97
0.019300	0.000000	542.725	1654.86
0.019300	0.000000	527.369	3851.47
0.019300	0.000000	511.977	3839.22
0.019300	0.000000	496.551	1659.73
0.019300	0.000000	481.09	1474.74
0.019300	0.000000	465.592	1487.35
0.019300	0.000000	450.061	1602.47
0.019300	0.000000	434.494	1621.75
0.019300	0.000000	418.891	1653.25
0.019300	0.000000	403.252	1573.93
0.019300	0.000000	387.576	1582.57
0.019300	0.000000	371.865	1580.67
0.019300	0.000000	356.119	1611.9
0.019300	0.000000	340.334	1723.03
0.019300	0.000000	324.514	1705.13
0.019300	0.000000	308.656	1832.8
0.019300	0.000000	292.762	1814.68
0.019300	0.000000	276.828	1722.48
0.019300	0.000000	260.859	1639.29
0.019300	0.000000	244.852	1638.85
0.019300	0.000000	228.805	1568.19
0.019300	0.000000	212.721	1374.87
0.019300	0.000000	196.6	1344.33
1.019300	0.000000	1529.5	8154.16
1.019300	0.000000	1516.26	7072.88
1.019300	0.000000	1502.99	6503.31
1.019300	0.000000	1489.69	6345.17
1.019300	0.000000	1476.37	6280.43
1.019300	0.000000	1463.02	6215.93
1.019300	0.000000	1449.63	6424.75
1.019300	0.000000	1436.23	6649.05
1.019300	0.000000	1422.79	7551.25
1.019300	0.000000	1409.33	9151.57
1.019300	0.000000	1395.83	11867.1
1.019300	0.000000	1382.31	17322.6
1.019300	0.000000	1368.76	27532.6
1.019300	0.000000	1355.19	35662.2
1.019300	0.000000	1341.58	31850
1.019300	0.000000	1327.95	22334.8
1.019300	0.000000	1314.28	15672.4
1.019300	0.000000	1300.59	11355.5
1.019300	0.000000	1286.87	8642.42
1.019300	0.000000	1273.12	6945.8
1.019300	0.000000	1259.34	5784.67
1.019300	0.000000	1245.54	4926.84
1.019300	0.000000	1231.7	4291.01
1.019300	0.000000	1217.84	3850.02
1.019300	0.000000	1203.94	3525.55
1.019300	0.000000	1190.02	3393.82
1.019300	0.000000	1176.06	3144.49
1.019300	0.000000	1162.08	3010.14
1.019300	0.000000	1148.07	3195.94
1.019300	0.000000	1134.03	3193.1
1.019300	0.000000	1119.96	2813.44
1.019300	0.000000	1105.85	2591.23
1.019300	0.000000	1091.72	2340.78
1.019300	0.000000	1077.56	2227.18
1.019300	0.000000	1063.37	2086.94
1.019300	0.000000	1049.15	1856.48
1.019300	0.000000	1034.9	1873.74
1.019300	0.000000	1020.62	1823.59
1.019300	0.000000	1006.3	1954.07
1.019300	0.000000	991.959	2175.93
1.019300	0.000000	977.586	2660.59
1.019300	0.000000	963.182	2565.26
1.019300	0.000000	948.746	2426.55
1.019300	0.000000	934.279	2227.65
1.019300	0.000000	919.781	1481.91
1.019300	0.000000	905.254	1342.58
1.019300	0.000000	890.693	1335.92
1.019300	0.000000	876.102	1265.27
1.019300	0.000000	861.479	1275.69
1.019300	0.000000	846.824	1286.06
1.019300	0.000000	832.139	1227.16
1.019300	0.000000	817.42	1202.1
1.019300	0.000000	802.67	1218.12
1.019300	0.000000	787.889	1232.2
1.019300	0.000000	773.074	1094.15
1.019300	0.000000	758.227	1245.35
1.019300	0.000000	743.348	1152.16
1.019300	0.000000	728.438	1116.48
1.019300	0.000000	713.492	1148.96
1.019300	0.000000	698.516	1148.27
1.019300	0.000000	683.506	1202.49
1.019300	0.000000	668.463	1232.71
1.019300	0.000000	653.385	1189.9
1.019300	0.000000	638.275	1310.91
1.019300	0.000000	623.133	1260.83
1.019300	0.000000	607.955	1220.02
1.019300	0.000000	592.744	1168.54
1.019300	0.000000	577.5	1084.84
1.019300	0.000000	562.221	1150.74
1.019300	0.000000	546.908	1257.6
1.019300	0.000000	531.561	2160.51
1.019300	0.000000	516.178	13082.1
1.019300	0.000000	500.762	1516.42
1.019300	0.000000	485.309	1383.2
1.019300	0.000000	469.822	1303.79
1.019300	0.000000	454.301	1316.75
1.019300	0.000000	438.742	1396.74
1.019300	0.000000	423.148	1372.41
1.019300	0.000000	407.52	1388.6
1.019300	0.000000	391.855	1334.55
1.019300	0.000000	376.154	1417.2
1.019300	0.000000	360.416	1443.6
1.019300	0.000000	344.643	1414.13
1.019300	0.000000	328.832	1428.21
1.019300	0.000000	312.984	1586.09
1.019300	0.000000	297.1	1687.87
1.019300	0.000000	281.178	1537.26
1.019300	0.000000	265.219	1471.67
1.019300	0.000000	249.221	1413.24
1.019300	0.000000	233.186	1372.2
1.019300	0.000000	217.111	1256.14
1.019300	0.000000	201	1213.92
2.019300	0.000000	1533.11	6500.82
2.019300	0.000000	1519.87	5700.54
2.019300	0.000000	1506.61	5158.37
2.019300	0.000000	1493.32	4951.25
2.019300	0.000000	1480	4759.42
2.019300	0.000000	1466.66	4844.22
2.019300	0.000000	1453.29	4764.29
2.019300	0.000000	1439.89	5127.5
2.019300	0.000000	1426.46	5640.57
2.019300	0.000000	1413	6692.51
2.019300	0.000000	1399.52	8530.54
2.019300	0.000000	1386	12335
2.019300	0.000000	1372.46	19633.6
2.019300	0.000000	1358.89	27340.9
2.019300	0.000000	1345.29	25998.8
2.019300	0.000000	1331.67	18724.4
2.019300	0.000000	1318.01	12180.5
2.019300	0.000000	1304.33	9087.15
2.019300	0.000000	1290.62	6633.79
2.019300	0.000000	1276.88	5390.28
2.019300	0.000000	1263.1	4423.29
2.019300	0.000000	1249.3	3770.92
2.019300	0.000000	1235.48	3300.07
2.019300	0.000000	1221.62	2851.01
2.019300	0.000000	1207.73	2771.81
2.019300	0.000000	1193.82	2485.63
2.019300	0.000000	1179.87	2407.5
2.019300	0.000000	1165.9	2341.48
2.019300	0.000000	1151.89	2446.4
2.019300	0.000000	1137.86	2611.55
2.019300	0.000000	1123.8	2246.58
2.019300	0.000000	1109.7	2132.66
2.019300	0.000000	1095.58	1906.39
2.019300	0.000000	1081.43	1696.58
2.019300	0.000000	1067.24	1576.76
2.019300	0.000000	1053.03	1445.84
2.019300	0.000000	1038.79	1440.84
2.019300	0.000000	1024.51	1530.16
2.019300	0.000000	1010.21	1471.21
2.019300	0.000000	995.875	1715.31
2.019300	0.000000	981.508	2369.53
2.019300	0.000000	967.113	2328.21
2.019300	0.000000	952.686	2266.11
2.019300	0.000000	938.229	2160.54
2.019300	0.000000	923.738	1253.35
2.019300	0.000000	909.219	1123.89
2.019300	0.000000	894.666	1093.15
2.019300	0.000000	880.084	1064.43
2.019300	0.000000	865.471	988.818
2.019300	0.000000	850.824	996.064
2.019300	0.000000	836.146	978.938
2.019300	0.000000	821.438	1017.91
2.019300	0.000000	806.695	987.748
2.019300	0.000000	791.922	939.113
2.019300	0.000000	777.117	959.338
2.019300	0.000000	762.279	929.476
2.019300	0.000000	747.41	947.771
2.019300	0.000000	732.506	921.735
2.019300	0.000000	717.572	851.658
2.019300	0.000000	702.604	910.359
2.019300	0.000000	687.602	955.974
2.019300	0.000000	672.568	1008.69
2.019300	0.000000	657.5	1015.58
2.019300	0.000000	642.4	1084.29
2.019300	0.000000	627.266	1000.2
2.019300	0.000000	612.098	1055.94
2.019300	0.000000	596.896	956.005
2.019300	0.000000	581.66	897.976
2.019300	0.000000	566.391	958.94
2.019300	0.000000	551.088	1001.67
2.019300	0.000000	535.75	1472.27
2.019300	0.000000	520.377	55371.8
2.019300	0.000000	504.969	1717.05
2.019300	0.000000	489.527	1154.57
2.019300	0.000000	474.049	1038.35
2.019300	0.000000	458.537	1016.51
2.019300	0.000000	442.988	1100.77
2.019300	0.000000	427.406	1142.33
2.019300	0.000000	411.787	1132.68
2.019300	0.000000	396.131	1098.49
2.019300	0.000000	380.439	1167.74
2.019300	0.000000	364.713	1156.31
2.019300	0.000000	348.949	1164.09
2.019300	0.000000	333.148	1138.78
2.019300	0.000000	317.311	1240.2
2.019300	0.000000	301.436	1460.53
2.019300	0.000000	285.523	1218.85
2.019300	0.000000	269.574	1176.37
2.019300	0.000000	253.588	1159.85
2.019300	0.000000	237.562	1097.1
2.019300	0.000000	221.5	967.941
2.019300	0.000000	205.398	953.689
3.019300	0.000000	1536.71	6666.85
3.019300	0.000000	1523.49	5525.14
3.019300	0.000000	1510.23	5165.44
3.019300	0.000000	1496.95	4672.75
3.019300	0.000000	1483.64	4553.63
3.019300	0.000000	1470.3	4554.46
3.019300	0.000000	1456.94	4501.82
3.019300	0.000000	1443.54	4787.84
3.019300	0.000000	1430.12	5179.1
3.019300	0.000000	1416.67	5969.08
3.019300	0.000000	1403.2	7634.36
3.019300	0.000000	1389.69	10671.9
3.019300	0.000000	1376.16	17612.7
3.019300	0.000000	1362.6	25912.1
3.019300	0.000000	1349	27659.2
3.019300	0.000000	1335.39	20905.8
3.019300	0.000000	1321.74	13997.3
3.019300	0.000000	1308.06	9224.94
3.019300	0.000000	1294.36	6779.92
3.019300	0.000000	1280.62	5305.34
3.019300	0.000000	1266.86	4304.04
3.019300	0.000000	1253.07	3681.44
3.019300	0.000000	1239.25	3186.66
3.019300	0.000000	1225.4	2874.47
3.019300	0.000000	1211.52	2561.59
3.019300	0.000000	1197.62	2413.97
3.019300	0.000000	1183.68	2357.63
3.019300	0.000000	1169.71	2181.52
3.019300	0.000000	1155.71	2202.44
3.019300	0.000000	1141.69	2381.92
3.019300	0.000000	1127.63	2298.7
3.019300	0.000000	1113.55	2005.16
3.019300	0.000000	1099.44	1915.27
3.019300	0.000000	1085.29	1689.8
3.019300	0.000000	1071.12	1567.99
3.019300	0.000000	1056.91	1435.08
3.019300	0.000000	1042.68	1314.3
3.019300	0.000000	1028.41	1311.51
3.019300	0.000000	1014.11	1349.07
3.019300	0.000000	999.787	1514.95
3.019300	0.000000	985.43	2173.82
3.019300	0.000000	971.041	2215
3.019300	0.000000	956.623	2115
3.019300	0.000000	942.174	2144.69
3.019300	0.000000	927.693	1331.87
3.019300	0.000000	913.182	1077.22
3.019300	0.000000	898.639	955.891
3.019300	0.000000	884.064	1017.93
3.019300	0.000000	869.459	942.376
3.019300	0.000000	854.822	998.528
3.019300	0.000000	840.152	932.694
3.019300	0.000000	825.451	992.347
3.019300	0.000000	810.719	960.361
3.019300	0.000000	795.955	870.823
3.019300	0.000000	781.158	859.647
3.019300	0.000000	766.33	818.87
3.019300	0.000000	751.469	846.662
3.019300	0.000000	736.574	841.124
3.019300	0.000000	721.648	806.154
3.019300	0.000000	706.689	892.539
3.019300	0.000000	691.697	881.417
3.019300	0.000000	676.672	917.875
3.019300	0.000000	661.613	992.477
3.019300	0.000000	646.521	928.392
3.019300	0.000000	631.396	919.072
3.019300	0.000000	616.238	947.843
3.019300	0.000000	601.045	886.062
3.019300	0.000000	585.82	862.438
3.019300	0.000000	570.559	842.51
3.019300	0.000000	555.264	951.99
3.019300	0.000000	539.936	1197.18
3.019300	0.000000	524.572	6335.42
3.019300	0.000000	509.174	2223.01
3.019300	0.000000	493.742	1052.03
3.019300	0.000000	478.273	976.833
3.019300	0.000000	462.771	1006.51
3.019300	0.000000	447.232	1018.36
3.019300	0.000000	431.658	1023.1
3.019300	0.000000	416.049	1043.63
3.019300	0.000000	400.404	1039.48
3.019300	0.000000	384.723	1012.56
3.019300	0.000000	369.006	1064.41
3.019300	0.000000	353.252	1032.3
3.019300	0.000000	337.461	1151.68
3.019300	0.000000	321.633	1142.05
3.019300	0.000000	305.77	1288.3
3.019300	0.000000	289.867	1157.45
3.019300	0.000000	273.928	1163.34
3.019300	0.000000	257.951	1126.21
3.019300	0.000000	241.938	1054.93
3.019300	0.000000	225.885	992.528
3.019300	0.000000	209.793	911.632
3.019300	0.000000	193.664	820.89
4.019300	0.000000	1527.1	7267.81
4.019300	0.000000	1513.85	6406.54
4.019300	0.000000	1500.57	5913.06
4.019300	0.000000	1487.27	5737.61
4.019300	0.000000	1473.94	5705.07
4.019300	0.000000	1460.58	5610.93
4.019300	0.000000	1447.2	5855.82
4.019300	0.000000	1433.79	6173.39
4.019300	0.000000	1420.34	7043.52
4.019300	0.000000	1406.88	8619.81
4.019300	0.000000	1393.38	11506.4
4.019300	0.000000	1379.85	17133.2
4.019300	0.000000	1366.3	27072.2
4.019300	0.000000	1352.71	32383.9
4.019300	0.000000	1339.1	25986.2
4.019300	0.000000	1325.46	18062
4.019300	0.000000	1311.79	13027.2
4.019300	0.000000	1298.1	9553.88
4.019300	0.000000	1284.37	7059.82
4.019300	0.000000	1270.62	5884.5
4.019300	0.000000	1256.84	4827.68
4.019300	0.000000	1243.02	4141.26
4.019300	0.000000	1229.18	3832.84
4.019300	0.000000	1215.31	3363.27
4.019300	0.000000	1201.41	3057.74
4.019300	0.000000	1187.48	2869.84
4.019300	0.000000	1173.52	2863.79
4.019300	0.000000	1159.54	2904.89
4.019300	0.000000	1145.52	2796.84
4.019300	0.000000	1131.47	2859.39
4.019300	0.000000	1117.39	2576.21
4.019300	0.000000	1103.29	2282.52
4.019300	0.000000	1089.15	2207.72
4.019300	0.000000	1074.98	2044.02
4.019300	0.000000	1060.79	1832.62
4.019300	0.000000	1046.56	1722.52
4.019300	0.000000	1032.3	1641.78
4.019300	0.000000	1018.02	1788.27
4.019300	0.000000	1003.7	1709.63
4.019300	0.000000	989.348	2146.36
4.019300	0.000000	974.969	2348.13
4.019300	0.000000	960.559	2352.64
4.019300	0.000000	946.117	2178.29
4.019300	0.000000	931.645	1687.64
4.019300	0.000000	917.143	1282.43
4.019300	0.000000	902.607	1262.67
4.019300	0.000000	888.043	1169.42
4.019300	0.000000	873.445	1172.55
4.019300	0.000000	858.816	1200.07
4.019300	0.000000	844.156	1070.04
4.019300	0.000000	829.465	1207.98
4.019300	0.000000	814.74	1140.05
4.019300	0.000000	799.984	1126.41
4.019300	0.000000	785.197	1194.56
4.019300	0.000000	770.377	1056.64
4.019300	0.000000	755.525	1126.47
4.019300	0.000000	740.639	1026.19
4.019300	0.000000	725.723	1106.82
4.019300	0.000000	710.771	1047.43
4.019300	0.000000	695.789	1057.97
4.019300	0.000000	680.773	1159.93
4.019300	0.000000	665.723	1170.15
4.019300	0.000000	650.641	1098.35
4.019300	0.000000	635.525	1148.63
4.019300	0.000000	620.375	1251.26
4.019300	0.000000	605.191	1138.11
4.019300	0.000000	589.975	1122.93
4.019300	0.000000	574.725	1041.17
4.019300	0.000000	559.439	1046.03
4.019300	0.000000	544.119	1276.81
4.019300	0.000000	528.766	2558.63
4.019300	0.000000	513.377	4250.61
4.019300	0.000000	497.955	1293.14
4.019300	0.000000	482.496	1183.59
4.019300	0.000000	467.002	1184.45
4.019300	0.000000	451.475	1264.9
4.019300	0.000000	435.91	1323.79
4.019300	0.000000	420.311	1211.58
4.019300	0.000000	404.676	1275.57
4.019300	0.000000	389.004	1267.38
4.019300	0.000000	373.295	1210.24
4.019300	0.000000	357.551	1289.44
4.019300	0.000000	341.771	1282.97
4.019300	0.000000	325.953	1328.61
4.019300	0.000000	310.1	1344.57
4.019300	0.000000	294.207	1407.11
4.019300	0.000000	278.279	1257.22
4.019300	0.000000	262.312	1288.66
4.019300	0.000000	246.309	1242.7
4.019300	0.000000	230.266	1183.25
4.019300	0.000000	214.186	1059.14
4.019300	0.000000	198.066	1097.51
0.019300	1.000000	1530.7	7664.95
0.019300	1.000000	1517.46	6445.45
0.019300	1.000000	1504.2	5829.44
0.019300	1.000000	1490.9	5585.88
0.019300	1.000000	1477.58	5489.71
0.019300	1.000000	1464.23	5533.86
0.019300	1.000000	1450.85	5577.79
0.019300	1.000000	1437.45	5828.5
0.019300	1.000000	1424.01	6634.41
0.019300	1.000000	1410.55	7887.97
0.019300	1.000000	1397.06	10056.8
0.019300	1.000000	1383.54	14874.9
0.019300	1.000000	1370	22907.6
0.019300	1.000000	1356.42	30449.3
0.019300	1.000000	1342.82	28178.2
0.019300	1.000000	1329.19	20103.9
0.019300	1.000000	1315.53	13740.6
0.019300	1.000000	1301.84	10097.2
0.019300	1.000000	1288.12	7688.74
0.019300	1.000000	1274.37	6117.71
0.019300	1.000000	1260.6	5179.47
0.019300	1.000000	1246.79	4412.31
0.019300	1.000000	1232.96	3912.49
0.019300	1.000000	1219.1	3383.04
0.019300	1.000000	1205.21	3142.56
0.019300	1.000000	1191.28	2934.64
0.019300	1.000000	1177.33	2790.6
0.019300	1.000000	1163.35	2717.9
0.019300	1.000000	1149.34	2720.01
0.019300	1.000000	1135.3	2976.5
0.019300	1.000000	1121.24	2530.83
0.019300	1.000000	1107.14	2307.22
0.019300	1.000000	1093.01	2154.55
0.019300	1.000000	1078.85	1944.3
0.019300	1.000000	1064.66	1810.45
0.019300	1.000000	1050.44	1630.77
0.019300	1.000000	1036.19	1719.86
0.019300	1.000000	1021.91	1614.23
0.019300	1.000000	1007.61	1649.19
0.019300	1.000000	993.264	1827.67
0.019300	1.000000	978.893	2209.94
0.019300	1.000000	964.492	2197.59
0.019300	1.000000	950.059	2114.84
0.019300	1.000000	935.596	1842.49
0.019300	1.000000	921.102	1273.71
0.019300	1.000000	906.574	1210.45
0.019300	1.000000	892.018	1115.37
0.019300	1.000000	877.43	1090.38
0.019300	1.000000	862.809	1041.05
0.019300	1.000000	848.158	1025.67
0.019300	1.000000	833.475	1051.52
0.019300	1.000000	818.76	1019.37
0.019300	1.000000	804.012	1065.6
0.019300	1.000000	789.232	974.061
0.019300	1.000000	774.422	1003.47
0.019300	1.000000	759.578	1016.1
0.019300	1.000000	744.703	1032.35
0.019300	1.000000	729.793	995.077
0.019300	1.000000	714.852	1005.77
0.019300	1.000000	699.879	981.547
0.019300	1.000000	684.871	1003.19
0.019300	1.000000	669.83	1079.52
0.019300	1.000000	654.758	1113.59
0.019300	1.000000	639.65	1045.66
0.019300	1.000000	624.51	1081.45
0.019300	1.000000	609.336	1037.41
0.019300	1.000000	594.129	968.263
0.019300	1.000000	578.887	969.709
0.019300	1.000000	563.611	958.55
0.019300	1.000000	548.301	1069.45
0.019300	1.000000	532.957	1709.78
0.019300	1.000000	517.578	23854.5
0.019300	1.000000	502.164	1391.97
0.019300	1.000000	486.715	1150.53
0.019300	1.000000	471.232	1059.21
0.019300	1.000000	455.713	1141.77
0.019300	1.000000	440.158	1200.99
0.019300	1.000000	424.568	1189.43
0.019300	1.000000	408.943	1135.72
0.019300	1.000000	393.281	1143.64
0.019300	1.000000	377.584	1184.75
0.019300	1.000000	361.85	1113.92
0.019300	1.000000	346.078	1170.56
0.019300	1.000000	330.271	1190.43
0.019300	1.000000	314.428	1239.67
0.019300	1.000000	298.545	1411.47
0.019300	1.000000	282.627	1321.87
0.019300	1.000000	266.67	1160.37
0.019300	1.000000	250.676	1234.92
0.019300	1.000000	234.645	1142.89
0.019300	1.000000	218.574	1025.64
0.019300	1.000000	202.467	1009.55
1.019300	1.000000	1534.31	6726.75
1.019300	1.000000	1521.08	5896.79
1.019300	1.000000	1507.82	5335.46
1.019300	1.000000	1494.53	4774.37
1.019300	1.000000	1481.22	4863.49
1.019300	1.000000	1467.87	4746.3
1.019300	1.000000	1454.5	4902.86
1.019300	1.000000	1441.11	5325.33
1.019300	1.000000	1427.68	5664.15
1.019300	1.000000	1414.22	6448.74
1.019300	1.000000	1400.74	8432.31
1.019300	1.000000	1387.23	11849.3
1.019300	1.000000	1373.69	19026.5
1.019300	1.000000	1360.13	26939.1
1.019300	1.000000	1346.53	26209.9
1.019300	1.000000	1332.91	19560.8
1.019300	1.000000	1319.25	13114.6
1.019300	1.000000	1305.57	9315.81
1.019300	1.000000	1291.86	6907.59
1.019300	1.000000	1278.12	5443.3
1.019300	1.000000	1264.36	4450.07
1.019300	1.000000	1250.56	3779.6
1.019300	1.000000	1236.73	3314.61
1.019300	1.000000	1222.88	2994.33
1.019300	1.000000	1209	2685.27
1.019300	1.000000	1195.08	2519.67
1.019300	1.000000	1181.14	2404.02
1.019300	1.000000	1167.17	2339.96
1.019300	1.000000	1153.17	2389.97
1.019300	1.000000	1139.14	2496.53
1.019300	1.000000	1125.08	2348.62
1.019300	1.000000	1110.99	2078.48
1.019300	1.000000	1096.87	1902.86
1.019300	1.000000	1082.71	1749.33
1.019300	1.000000	1068.54	1582.88
1.019300	1.000000	1054.32	1449.99
1.019300	1.000000	1040.08	1308
1.019300	1.000000	1025.81	1351.43
1.019300	1.000000	1011.51	1335.1
1.019300	1.000000	997.178	1579.54
1.019300	1.000000	982.816	2084.98
1.019300	1.000000	968.422	2061.44
1.019300	1.000000	953.998	1815.14
1.019300	1.000000	939.543	1777.05
1.019300	1.000000	925.057	1122.73
1.019300	1.000000	910.539	1080.58
1.019300	1.000000	895.99	968.736
1.019300	1.000000	881.412	938.387
1.019300	1.000000	866.801	975.851
1.019300	1.000000	852.156	932.469
1.019300	1.000000	837.482	872.418
1.019300	1.000000	822.775	928.441
1.019300	1.000000	808.037	946.934
1.019300	1.000000	793.268	928.139
1.019300	1.000000	778.465	892.714
1.019300	1.000000	763.629	831.509
1.019300	1.000000	748.762	790.89
1.019300	1.000000	733.863	870.291
1.019300	1.000000	718.93	820.551
1.019300	1.000000	703.965	840.781
1.019300	1.000000	688.967	846.261
1.019300	1.000000	673.936	915.679
1.019300	1.000000	658.871	857.126
1.019300	1.000000	643.773	969.87
1.019300	1.000000	628.643	929.595
1.019300	1.000000	613.479	922.097
1.019300	1.000000	598.279	847.745
1.019300	1.000000	583.047	818.803
1.019300	1.000000	567.781	883.556
1.019300	1.000000	552.48	942.624
1.019300	1.000000	537.145	1227.14
1.019300	1.000000	521.775	20987.9
1.019300	1.000000	506.371	1540.85
1.019300	1.000000	490.932	989.323
1.019300	1.000000	475.457	1011.94
1.019300	1.000000	459.949	968.898
1.019300	1.000000	444.404	1053.29
1.019300	1.000000	428.824	1035.01
1.019300	1.000000	413.207	1015.05
1.019300	1.000000	397.557	1009.21
1.019300	1.000000	381.867	1012.14
1.019300	1.000000	366.145	959.135
1.019300	1.000000	350.383	1033.61
1.019300	1.000000	334.586	1095.55
1.019300	1.000000	318.752	1086.05
1.019300	1.000000	302.881	1279.1
1.019300	1.000000	286.973	1136.23
1.019300	1.000000	271.025	1064.65
1.019300	1.000000	255.043	1012.29
1.019300	1.000000	239.021	1004.75
1.019300	1.000000	222.961	968.151
1.019300	1.000000	206.863	882.226
2.019300	1.000000	1537.91	8108.74
2.019300	1.000000	1524.69	7015.76
2.019300	1.000000	1511.44	6254.84
2.019300	1.000000	1498.16	5763.94
2.019300	1.000000	1484.85	5572.34
2.019300	1.000000	1471.52	5437.13
2.019300	1.000000	1458.15	5185.27
2.019300	1.000000	1444.76	5621.75
2.019300	1.000000	1431.34	6072.77
2.019300	1.000000	1417.9	6908.04
2.019300	1.000000	1404.42	8844.9
2.019300	1.000000	1390.92	11874.4
2.019300	1.000000	1377.39	18412
2.019300	1.000000	1363.83	27844
2.019300	1.000000	1350.24	31833.8
2.019300	1.000000	1336.62	25068.3
2.019300	1.000000	1322.98	17493.4
2.019300	1.000000	1309.31	11471.1
2.019300	1.000000	1295.61	8682.04
2.019300	1.000000	1281.88	6781.01
2.019300	1.000000	1268.12	5333.16
2.019300	1.000000	1254.33	4544.9
2.019300	1.000000	1240.51	3829.5
2.019300	1.000000	1226.66	3662.72
2.019300	1.000000	1212.79	3270.91
2.019300	1.000000	1198.88	3096.08
2.019300	1.000000	1184.95	2823.39
2.019300	1.000000	1170.98	2669.88
2.019300	1.000000	1156.99	2648.54
2.019300	1.000000	1142.97	2883.93
2.019300	1.000000	1128.91	2692.11
2.019300	1.000000	1114.83	2288.43
2.019300	1.000000	1100.72	2157.05
2.019300	1.000000	1086.58	1979.58
2.019300	1.000000	1072.4	1845.5
2.019300	1.000000	1058.2	1688.76
2.019300	1.000000	1043.97	1559.71
2.019300	1.000000	1029.71	1587.21
2.019300	1.000000	1015.41	1664.56
2.019300	1.000000	1001.09	1666.77
2.019300	1.000000	986.736	2157.01
2.019300	1.000000	972.352	2238.35
2.019300	1.000000	957.936	2075.39
2.019300	1.000000	943.488	2002.49
2.019300	1.000000	929.012	1390.96
2.019300	1.000000	914.502	1156.96
2.019300	1.000000	899.963	1088.34
2.019300	1.000000	885.391	1214.21
2.019300	1.000000	870.787	1036.63
2.019300	1.000000	856.154	1100.1
2.019300	1.000000	841.488	1020.92
2.019300	1.000000	826.789	1039.27
2.019300	1.000000	812.061	1057.54
2.019300	1.000000	797.299	967.772
2.019300	1.000000	782.506	1093.81
2.019300	1.000000	767.68	943.185
2.019300	1.000000	752.82	998.447
2.019300	1.000000	737.93	920.624
2.019300	1.000000	723.006	863.383
2.019300	1.000000	708.051	1015.79
2.019300	1.000000	693.061	931.08
2.019300	1.000000	678.039	1027.79
2.019300	1.000000	662.984	1047.42
2.019300	1.000000	647.895	1088.8
2.019300	1.000000	632.773	1068.23
2.019300	1.000000	617.617	1082.17
2.019300	1.000000	602.428	980.292
2.019300	1.000000	587.205	929.384
2.019300	1.000000	571.947	896.7
2.019300	1.000000	556.656	973.743
2.019300	1.000000	541.33	1174.12
2.019300	1.000000	525.971	3657.52
2.019300	1.000000	510.576	2371.58
2.019300	1.000000	495.146	1150.18
2.019300	1.000000	479.682	1140.47
2.019300	1.000000	464.182	1120.15
2.019300	1.000000	448.646	1082.24
2.019300	1.000000	433.076	1203.27
2.019300	1.000000	417.471	1160.03
2.019300	1.000000	401.828	1097.65
2.019300	1.000000	386.15	1117.91
2.019300	1.000000	370.436	1152.04
2.019300	1.000000	354.686	1156.35
2.019300	1.000000	338.898	1153.66
2.019300	1.000000	323.074	1157.92
2.019300	1.000000	307.213	1253.94
2.019300	1.000000	291.314	1252.73
2.019300	1.000000	275.379	1137.73
2.019300	1.000000	259.404	1159.13
2.019300	1.000000	243.395	1074.03
2.019300	1.000000	227.346	1110.85
2.019300	1.000000	211.258	1055.26
2.019300	1.000000	195.131	982.898
3.019300	1.000000	1528.3	6876.31
3.019300	1.000000	1515.05	5802.03
3.019300	1.000000	1501.78	5409.09
3.019300	1.000000	1488.48	5170.61
3.019300	1.000000	1475.15	5023.8
3.019300	1.000000	1461.8	5134.73
3.019300	1.000000	1448.42	5323.17
3.019300	1.000000	1435.01	5596.85
3.019300	1.000000	1421.57	6241.43
3.019300	1.000000	1408.1	7823.77
3.019300	1.000000	1394.61	10425.5
3.019300	1.000000	1381.08	15716.4
3.019300	1.000000	1367.53	24849.2
3.019300	1.000000	1353.95	30569.3
3.019300	1.000000	1340.34	25104.8
3.019300	1.000000	1326.71	17318
3.019300	1.000000	1313.04	11956.1
3.019300	1.000000	1299.35	8652.9
3.019300	1.000000	1285.62	6556.66
3.019300	1.000000	1271.87	5356.2
3.019300	1.000000	1258.09	4358.1
3.019300	1.000000	1244.28	3728.24
3.019300	1.000000	1230.44	3388.87
3.019300	1.000000	1216.57	2902.32
3.019300	1.000000	1202.68	2736.08
3.019300	1.000000	1188.75	2582.36
3.019300	1.000000	1174.79	2511.96
3.019300	1.000000	1160.81	2565.59
3.019300	1.000000	1146.79	2591.55
3.019300	1.000000	1132.75	2689.75
3.019300	1.000000	1118.68	2332.7
3.019300	1.000000	1104.57	2039.47
3.019300	1.000000	1090.44	1943.79
3.019300	1.000000	1076.27	1768.98
3.019300	1.000000	1062.08	1651.03
3.019300	1.000000	1047.86	1556.75
3.019300	1.000000	1033.6	1505.26
3.019300	1.000000	1019.31	1527.06
3.019300	1.000000	1005	1512.29
3.019300	1.000000	990.654	1798.24
3.019300	1.000000	976.277	2157.48
3.019300	1.000000	961.869	2150.97
3.019300	1.000000	947.432	2049.32
3.019300	1.000000	932.963	1612.02
3.019300	1.000000	918.463	1216.37
3.019300	1.000000	903.93	1164.6
3.019300	1.000000	889.367	1064
3.019300	1.000000	874.773	1037.24
3.019300	1.000000	860.148	1061.3
3.019300	1.000000	845.49	999.03
3.019300	1.000000	830.801	1071.68
3.019300	1.000000	816.08	1004.04
3.019300	1.000000	801.328	912.48
3.019300	1.000000	786.543	1036.85
3.019300	1.000000	771.725	1003.08
3.019300	1.000000	756.877	947.239
3.019300	1.000000	741.994	943.326
3.019300	1.000000	727.08	939.421
3.019300	1.000000	712.133	930.011
3.019300	1.000000	697.152	878.454
3.019300	1.000000	682.139	1011.94
3.019300	1.000000	667.094	998.751
3.019300	1.000000	652.014	960.11
3.019300	1.000000	636.9	1005.25
3.019300	1.000000	621.754	1108.22
3.019300	1.000000	606.574	977.268
3.019300	1.000000	591.359	951.618
3.019300	1.000000	576.111	861.213
3.019300	1.000000	560.83	902.431
3.019300	1.000000	545.514	1018.79
3.019300	1.000000	530.164	1886.25
3.019300	1.000000	514.777	5854.94
3.019300	1.000000	499.357	1206.11
3.019300	1.000000	483.902	1093.18
3.019300	1.000000	468.412	1035.72
3.019300	1.000000	452.887	1081.14
3.019300	1.000000	437.326	1122.81
3.019300	1.000000	421.73	1063.88
3.019300	1.000000	406.098	1043.87
3.019300	1.000000	390.43	1064.26
3.019300	1.000000	374.725	1103.79
3.019300	1.000000	358.984	1094.25
3.019300	1.000000	343.207	1121.31
3.019300	1.000000	327.393	1054.43
3.019300	1.000000	311.543	1206.21
3.019300	1.000000	295.654	1225.87
3.019300	1.000000	279.729	1109.14
3.019300	1.000000	263.766	1116.85
3.019300	1.000000	247.764	1102.19
3.019300	1.000000	231.727	1022.5
3.019300	1.000000	215.648	965.393
3.019300	1.000000	199.533	963.086
4.019300	1.000000	1531.91	6788.69
4.019300	1.000000	1518.67	5888.34
4.019300	1.000000	1505.4	5492.93
4.019300	1.000000	1492.11	5223.15
4.019300	1.000000	1478.79	5061.72
4.019300	1.000000	1465.45	5045.02
4.019300	1.000000	1452.07	5182.41
4.019300	1.000000	1438.67	5573.38
4.019300	1.000000	1425.23	6126.34
4.019300	1.000000	1411.78	7403.64
4.019300	1.000000	1398.29	9549.46
4.019300	1.000000	1384.77	13942.6
4.019300	1.000000	1371.23	21640.1
4.019300	1.000000	1357.66	30192
4.019300	1.000000	1344.06	28514.9
4.019300	1.000000	1330.43	20529.1
4.019300	1.000000	1316.77	13580.3
4.019300	1.000000	1303.08	9806.07
4.019300	1.000000	1289.37	7283.56
4.019300	1.000000	1275.62	5890.99
4.019300	1.000000	1261.85	4873.26
4.019300	1.000000	1248.05	4120.54
4.019300	1.000000	1234.22	3541.78
4.019300	1.000000	1220.36	3116.08
4.019300	1.000000	1206.47	2818.75
4.019300	1.000000	1192.55	2639.12
4.019300	1.000000	1178.6	2667.04
4.019300	1.000000	1164.62	2464.86
4.019300	1.000000	1150.62	2498.89
4.019300	1.000000	1136.58	2714.79
4.019300	1.000000	1122.52	2334.04
4.019300	1.000000	1108.42	2093.27
4.019300	1.000000	1094.29	1999.38
4.019300	1.000000	1080.14	1839.88
4.019300	1.000000	1065.95	1619.07
4.019300	1.000000	1051.74	1542.19
4.019300	1.000000	1037.49	1529.27
4.019300	1.000000	1023.21	1524.09
4.019300	1.000000	1008.91	1639.91
4.019300	1.000000	994.57	1944.92
4.019300	1.000000	980.201	2699.86
4.019300	1.000000	965.803	2562.44
4.019300	1.000000	951.373	2595.04
4.019300	1.000000	936.912	2205.72
4.019300	1.000000	922.42	1289.12
4.019300	1.000000	907.896	1225.82
4.019300	1.000000	893.342	1142.02
4.019300	1.000000	878.758	1034.08
4.019300	1.000000	864.141	1148.38
4.019300	1.000000	849.49	1074.64
4.019300	1.000000	834.811	1008.69
4.019300	1.000000	820.098	1109.21
4.019300	1.000000	805.354	1071.4
4.019300	1.000000	790.578	990.987
4.019300	1.000000	775.77	1014.8
4.019300	1.000000	760.93	944.101
4.019300	1.000000	746.057	886.627
4.019300	1.000000	731.15	971.315
4.019300	1.000000	716.213	956.315
4.019300	1.000000	701.24	983.578
4.019300	1.000000	686.236	1056.49
4.019300	1.000000	671.199	1119.93
4.019300	1.000000	656.129	1102.88
4.019300	1.000000	641.025	1084.07
4.019300	1.000000	625.889	1083.48
4.019300	1.000000	610.717	1091.94
4.019300	1.000000	595.514	961.232
4.019300	1.000000	580.273	959.089
4.019300	1.000000	565.002	985.726
4.019300	1.000000	549.695	1105.56
4.019300	1.000000	534.354	1790.71
4.019300	1.000000	518.977	63111.1
4.019300	1.000000	503.566	1656.09
4.019300	1.000000	488.121	1193.46
4.019300	1.000000	472.641	1142.84
4.019300	1.000000	457.125	1149.09
4.019300	1.000000	441.574	1180.04
4.019300	1.000000	425.986	1210.83
4.019300	1.000000	410.365	1178.16
4.019300	1.000000	394.707	1189.49
4.019300	1.000000	379.012	1190.25
4.019300	1.000000	363.281	1271.32
4.019300	1.000000	347.514	1296.25
4.019300	1.000000	331.709	1261.95
4.019300	1.000000	315.869	1361.32
4.019300	1.000000	299.99	1543.26
4.019300	1.000000	284.076	1379.12
4.019300	1.000000	268.123	1229.5
4.019300	1.000000	252.133	1231.75
4.019300	1.000000	236.104	1220.26
4.019300	1.000000	220.037	1032.7
4.019300	1.000000	203.932	1004.65
0.019300	2.000000	1535.51	2114.34
0.019300	2.000000	1522.28	1879.44
0.019300	2.000000	1509.03	1577.11
0.019300	2.000000	1495.74	1588.31
0.019300	2.000000	1482.43	1653.11
0.019300	2.000000	1469.09	1534.34
0.019300	2.000000	1455.72	1549.65
0.019300	2.000000	1442.32	1587.44
0.019300	2.000000	1428.9	1758.1
0.019300	2.000000	1415.45	2009.74
0.019300	2.000000	1401.97	2488.6
0.019300	2.000000	1388.46	3323.41
0.019300	2.000000	1374.93	5133.02
0.019300	2.000000	1361.36	7178.11
0.019300	2.000000	1347.77	7013.54
0.019300	2.000000	1334.15	5486.15
0.019300	2.000000	1320.5	3934.92
0.019300	2.000000	1306.82	2725.58
0.019300	2.000000	1293.11	2014.35
0.019300	2.000000	1279.38	1618.1
0.019300	2.000000	1265.61	1363.22
0.019300	2.000000	1251.82	1226.91
0.019300	2.000000	1237.99	985.828
0.019300	2.000000	1224.14	922.272
0.019300	2.000000	1210.26	882.727
0.019300	2.000000	1196.35	746.567
0.019300	2.000000	1182.41	788.354
0.019300	2.000000	1168.44	731.624
0.019300	2.000000	1154.44	790.921
0.019300	2.000000	1140.41	787.293
0.019300	2.000000	1126.36	738.726
0.019300	2.000000	1112.27	670.858
0.019300	2.000000	1098.15	649.978
0.019300	2.000000	1084	598.111
0.019300	2.000000	1069.82	571.652
0.019300	2.000000	1055.62	506.627
0.019300	2.000000	1041.38	659.917
0.019300	2.000000	1027.11	976.219
0.019300	2.000000	1012.81	1319.99
0.019300	2.000000	998.482	1886.61
0.019300	2.000000	984.123	4241.56
0.019300	2.000000	969.732	4217.23
0.019300	2.000000	955.311	4080.58
0.019300	2.000000	940.859	4121.27
0.019300	2.000000	926.375	1382.83
0.019300	2.000000	911.861	821.48
0.019300	2.000000	897.314	817.826
0.019300	2.000000	882.738	735.026
0.019300	2.000000	868.129	772.935
0.019300	2.000000	853.49	760.008
0.019300	2.000000	838.818	782.709
0.019300	2.000000	824.113	898.729
0.019300	2.000000	809.379	812.883
0.019300	2.000000	794.611	654.848
0.019300	2.000000	779.812	608.873
0.019300	2.000000	764.98	544.57
0.019300	2.000000	750.115	556.32
0.019300	2.000000	735.219	451.83
0.019300	2.000000	720.289	489.485
0.019300	2.000000	705.328	552.676
0.019300	2.000000	690.332	650.396
0.019300	2.000000	675.305	738.54
0.019300	2.000000	660.242	773.393
0.019300	2.000000	645.148	706.164
0.019300	2.000000	630.02	684.625
0.019300	2.000000	614.857	864.301
0.019300	2.000000	599.662	627.35
0.019300	2.000000	584.434	568.228
0.019300	2.000000	569.17	626.354
0.019300	2.000000	553.873	930.246
0.019300	2.000000	538.541	2024.75
0.019300	2.000000	523.174	36379.6
0.019300	2.000000	507.773	4325.61
0.019300	2.000000	492.338	1219.11
0.019300	2.000000	476.865	797.286
0.019300	2.000000	461.359	627.168
0.019300	2.000000	445.818	834.319
0.019300	2.000000	430.242	1051.1
0.019300	2.000000	414.629	849.864
0.019300	2.000000	398.98	967.287
0.019300	2.000000	383.295	924.776
0.019300	2.000000	367.574	987.296
0.019300	2.000000	351.818	1112.28
0.019300	2.000000	336.023	1151.44
0.019300	2.000000	320.193	1379.54
0.019300	2.000000	304.324	2006.48
0.019300	2.000000	288.42	1476.72
0.019300	2.000000	272.477	1273.37
0.019300	2.000000	256.496	1127.68
0.019300	2.000000	240.479	1066.7
0.019300	2.000000	224.422	908.48
0.019300	2.000000	208.328	621.277
1.019300	2.000000	1539.12	7032.43
1.019300	2.000000	1525.89	5944.89
1.019300	2.000000	1512.64	5546.86
1.019300	2.000000	1499.37	5179.42
1.019300	2.000000	1486.06	4883.69
1.019300	2.000000	1472.73	4653.04
1.019300	2.000000	1459.37	4711.22
1.019300	2.000000	1445.98	5009.23
1.019300	2.000000	1432.56	5432.95
1.019300	2.000000	1419.12	6179.79
1.019300	2.000000	1405.65	7622.99
1.019300	2.000000	1392.15	10395.1
1.019300	2.000000	1378.62	15738.9
1.019300	2.000000	1365.06	24752.7
1.019300	2.000000	1351.48	27261.2
1.019300	2.000000	1337.87	20720
1.019300	2.000000	1324.22	14916.9
1.019300	2.000000	1310.55	10289.6
1.019300	2.000000	1296.85	7522.53
1.019300	2.000000	1283.12	5897.74
1.019300	2.000000	1269.37	4679.14
1.019300	2.000000	1255.58	3985.76
1.019300	2.000000	1241.77	3410.62
1.019300	2.000000	1227.92	2990.67
1.019300	2.000000	1214.05	2738.82
1.019300	2.000000	1200.15	2531.49
1.019300	2.000000	1186.21	2332.9
1.019300	2.000000	1172.25	2245.33
1.019300	2.000000	1158.26	2183.65
1.019300	2.000000	1144.24	2353.44
1.019300	2.000000	1130.19	2432.55
1.019300	2.000000	1116.11	2062.52
1.019300	2.000000	1102	1849.81
1.019300	2.000000	1087.86	1719.59
1.019300	2.000000	1073.7	1564.71
1.019300	2.000000	1059.49	1414.35
1.019300	2.000000	1045.27	1314.81
1.019300	2.000000	1031.01	1348.62
1.019300	2.000000	1016.71	1380.35
1.019300	2.000000	1002.39	1448.4
1.019300	2.000000	988.043	1912.4
1.019300	2.000000	973.66	2070.69
1.019300	2.000000	959.248	2018.61
1.019300	2.000000	944.803	1858.32
1.019300	2.000000	930.328	1302.02
1.019300	2.000000	915.822	1075.75
1.019300	2.000000	901.285	1029.97
1.019300	2.000000	886.717	942.894
1.019300	2.000000	872.117	901.348
1.019300	2.000000	857.484	961.367
1.019300	2.000000	842.822	874.978
1.019300	2.000000	828.127	970.304
1.019300	2.000000	813.4	975.664
1.019300	2.000000	798.643	921.427
1.019300	2.000000	783.852	921.282
1.019300	2.000000	769.027	783.981
1.019300	2.000000	754.172	817.409
1.019300	2.000000	739.285	830.387
1.019300	2.000000	724.363	858.031
1.019300	2.000000	709.41	837.779
1.019300	2.000000	694.426	830.44
1.019300	2.000000	679.406	907.268
1.019300	2.000000	664.354	879.717
1.019300	2.000000	649.268	934.229
1.019300	2.000000	634.148	894.003
1.019300	2.000000	618.996	948.226
1.019300	2.000000	603.811	882.803
1.019300	2.000000	588.59	794.198
1.019300	2.000000	573.336	907.688
1.019300	2.000000	558.049	884.094
1.019300	2.000000	542.725	1047.06
1.019300	2.000000	527.369	2762.04
1.019300	2.000000	511.977	2855.77
1.019300	2.000000	496.551	1077.4
1.019300	2.000000	481.09	1014.55
1.019300	2.000000	465.592	978.564
1.019300	2.000000	450.061	969.262
1.019300	2.000000	434.494	1062.34
1.019300	2.000000	418.891	954.274
1.019300	2.000000	403.252	1048.7
1.019300	2.000000	387.576	1014.74
1.019300	2.000000	371.865	973.931
1.019300	2.000000	356.119	969.933
1.019300	2.000000	340.334	1030.34
1.019300	2.000000	324.514	1019.26
1.019300	2.000000	308.656	1174.52
1.019300	2.000000	292.762	1164.85
1.019300	2.000000	276.828	1079.35
1.019300	2.000000	260.859	1143.89
1.019300	2.000000	244.852	1039.94
1.019300	2.000000	228.805	984.398
1.019300	2.000000	212.721	903.489
1.019300	2.000000	196.6	807.618
2.019300	2.000000	1529.5	6833.95
2.019300	2.000000	1516.26	5958.73
2.019300	2.000000	1502.99	5368.7
2.019300	2.000000	1489.69	5243.91
2.019300	2.000000	1476.37	5078.36
2.019300	2.000000	1463.02	5014.3
2.019300	2.000000	1449.63	5159.92
2.019300	2.000000	1436.23	5493.41
2.019300	2.000000	1422.79	6250.79
2.019300	2.000000	1409.33	7541.63
2.019300	2.000000	1395.83	10042.7
2.019300	2.000000	1382.31	14490
2.019300	2.000000	1368.76	23059.4
2.019300	2.000000	1355.19	28925.9
2.019300	2.000000	1341.58	25285.3
2.019300	2.000000	1327.95	17782.8
2.019300	2.000000	1314.28	11962.4
2.019300	2.000000	1300.59	8660.57
2.019300	2.000000	1286.87	6740.13
2.019300	2.000000	1273.12	5503.09
2.019300	2.000000	1259.34	4408.79
2.019300	2.000000	1245.54	3792.63
2.019300	2.000000	1231.7	3421.29
2.019300	2.000000	1217.84	2996
2.019300	2.000000	1203.94	2738.58
2.019300	2.000000	1190.02	2653.89
2.019300	2.000000	1176.06	2514.41
2.019300	2.000000	1162.08	2426.58
2.019300	2.000000	1148.07	2462.64
2.019300	2.000000	1134.03	2698.09
2.019300	2.000000	1119.96	2274.57
2.019300	2.000000	1105.85	2055.45
2.019300	2.000000	1091.72	1903.34
2.019300	2.000000	1077.56	1841.11
2.019300	2.000000	1063.37	1602.95
2.019300	2.000000	1049.15	1473.98
2.019300	2.000000	1034.9	1414.94
2.019300	2.000000	1020.62	1540.82
2.019300	2.000000	1006.3	1422.36
2.019300	2.000000	991.959	1773.69
2.019300	2.000000	977.586	2121.59
2.019300	2.000000	963.182	2033.14
2.019300	2.000000	948.746	1948.85
2.019300	2.000000	934.279	1557.26
2.019300	2.000000	919.781	1159.76
2.019300	2.000000	905.254	1028.68
2.019300	2.000000	890.693	1000.06
2.019300	2.000000	876.102	1018.61
2.019300	2.000000	861.479	1033.33
2.019300	2.000000	846.824	978.604
2.019300	2.000000	832.139	993.325
2.019300	2.000000	817.42	976.242
2.019300	2.000000	802.67	992.751
2.019300	2.000000	787.889	970.151
2.019300	2.000000	773.074	908.697
2.019300	2.000000	758.227	962.231
2.019300	2.000000	743.348	851.193
2.019300	2.000000	728.438	928.554
2.019300	2.000000	713.492	851.149
2.019300	2.000000	698.516	887.801
2.019300	2.000000	683.506	984.684
2.019300	2.000000	668.463	1009.91
2.019300	2.000000	653.385	953.014
2.019300	2.000000	638.275	967.271
2.019300	2.000000	623.133	945.172
2.019300	2.000000	607.955	888.77
2.019300	2.000000	592.744	933.75
2.019300	2.000000	577.5	859.586
2.019300	2.000000	562.221	890.029
2.019300	2.000000	546.908	932.885
2.019300	2.000000	531.561	1648.57
2.019300	2.000000	516.178	9881.68
2.019300	2.000000	500.762	1224.18
2.019300	2.000000	485.309	963.618
2.019300	2.000000	469.822	1030.61
2.019300	2.000000	454.301	1030.04
2.019300	2.000000	438.742	1080.66
2.019300	2.000000	423.148	1097.57
2.019300	2.000000	407.52	1084.51
2.019300	2.000000	391.855	1029.41
2.019300	2.000000	376.154	1070.78
2.019300	2.000000	360.416	1066.55
2.019300	2.000000	344.643	1058.86
2.019300	2.000000	328.832	1096.35
2.019300	2.000000	312.984	1125
2.019300	2.000000	297.1	1200.19
2.019300	2.000000	281.178	1131.81
2.019300	2.000000	265.219	1072.34
2.019300	2.000000	249.221	1054.35
2.019300	2.000000	233.186	1039.86
2.019300	2.000000	217.111	900.659
2.019300	2.000000	201	920.672
3.019300	2.000000	1533.11	8408.42
3.019300	2.000000	1519.87	7438.11
3.019300	2.000000	1506.61	6784.6
3.019300	2.000000	1493.32	6354.97
3.019300	2.000000	1480	6220.04
3.019300	2.000000	1466.66	6180.34
3.019300	2.000000	1453.29	6140.77
3.019300	2.000000	1439.89	6665.14
3.019300	2.000000	1426.46	7498.26
3.019300	2.000000	1413	8644.33
3.019300	2.000000	1399.52	11260.6
3.019300	2.000000	1386	15571.8
3.019300	2.000000	1372.46	23892.2
3.019300	2.000000	1358.89	33682.2
3.019300	2.000000	1345.29	33684.5
3.019300	2.000000	1331.67	25057.3
3.019300	2.000000	1318.01	17242.7
3.019300	2.000000	1304.33	12791.5
3.019300	2.000000	1290.62	9486.86
3.019300	2.000000	1276.88	7379.64
3.019300	2.000000	1263.1	6063.31
3.019300	2.000000	1249.3	5078.99
3.019300	2.000000	1235.48	4527.91
3.019300	2.000000	1221.62	4024.72
3.019300	2.000000	1207.73	3608.7
3.019300	2.000000	1193.82	3227.96
3.019300	2.000000	1179.87	3203.43
3.019300	2.000000	1165.9	2990.25
3.019300	2.000000	1151.89	3032.99
3.019300	2.000000	1137.86	3110.76
3.019300	2.000000	1123.8	2924.46
3.019300	2.000000	1109.7	2659.01
3.019300	2.000000	1095.58	2412.16
3.019300	2.000000	1081.43	2230.41
3.019300	2.000000	1067.24	2074.59
3.019300	2.000000	1053.03	1809.24
3.019300	2.000000	1038.79	1815.04
3.019300	2.000000	1024.51	1815.03
3.019300	2.000000	1010.21	1826.53
3.019300	2.000000	995.875	2039.2
3.019300	2.000000	981.508	2629.63
3.019300	2.000000	967.113	2499.97
3.019300	2.000000	952.686	2283.24
3.019300	2.000000	938.229	2261.25
3.019300	2.000000	923.738	1463.82
3.019300	2.000000	909.219	1349.05
3.019300	2.000000	894.666	1338.6
3.019300	2.000000	880.084	1314.99
3.019300	2.000000	865.471	1225.68
3.019300	2.000000	850.824	1157.39
3.019300	2.000000	836.146	1233.5
3.019300	2.000000	821.438	1255.11
3.019300	2.000000	806.695	1179.71
3.019300	2.000000	791.922	1147.39
3.019300	2.000000	777.117	1161.6
3.019300	2.000000	762.279	1151.66
3.019300	2.000000	747.41	1084.49
3.019300	2.000000	732.506	1095.02
3.019300	2.000000	717.572	1107.34
3.019300	2.000000	702.604	1093.9
3.019300	2.000000	687.602	1186.73
3.019300	2.000000	672.568	1138.43
3.019300	2.000000	657.5	1250.79
3.019300	2.000000	642.4	1284.41
3.019300	2.000000	627.266	1178.1
3.019300	2.000000	612.098	1155.56
3.019300	2.000000	596.896	1109.62
3.019300	2.000000	581.66	1062.06
3.019300	2.000000	566.391	1156.84
3.019300	2.000000	551.088	1209.9
3.019300	2.000000	535.75	1624.51
3.019300	2.000000	520.377	50457.4
3.019300	2.000000	504.969	1857.91
3.019300	2.000000	489.527	1300.44
3.019300	2.000000	474.049	1290.4
3.019300	2.000000	458.537	1236.11
3.019300	2.000000	442.988	1303.97
3.019300	2.000000	427.406	1373.27
3.019300	2.000000	411.787	1354.29
3.019300	2.000000	396.131	1317.84
3.019300	2.000000	380.439	1362.07
3.019300	2.000000	364.713	1351.94
3.019300	2.000000	348.949	1341.84
3.019300	2.000000	333.148	1422.17
3.019300	2.000000	317.311	1469.15
3.019300	2.000000	301.436	1637.04
3.019300	2.000000	285.523	1479.54
3.019300	2.000000	269.574	1446.78
3.019300	2.000000	253.588	1366.04
3.019300	2.000000	237.562	1328.52
3.019300	2.000000	221.5	1140.67
3.019300	2.000000	205.398	1250.54
4.019300	2.000000	1536.71	3321.98
4.019300	2.000000	1523.49	2893.43
4.019300	2.000000	1510.23	2547.48
4.019300	2.000000	1496.95	2469.79
4.019300	2.000000	1483.64	2524.52
4.019300	2.000000	1470.3	2403.92
4.019300	2.000000	1456.94	2337.25
4.019300	2.000000	1443.54	2514.95
4.019300	2.000000	1430.12	2759.46
4.019300	2.000000	1416.67	3174.52
4.019300	2.000000	1403.2	3977.21
4.019300	2.000000	1389.69	5213.9
4.019300	2.000000	1376.16	8087.72
4.019300	2.000000	1362.6	11855
4.019300	2.000000	1349	13443.5
4.019300	2.000000	1335.39	10907.8
4.019300	2.000000	1321.74	7641.84
4.019300	2.000000	1308.06	5393.94
4.019300	2.000000	1294.36	4011.42
4.019300	2.000000	1280.62	3166.8
4.019300	2.000000	1266.86	2409.55
4.019300	2.000000	1253.07	2171.41
4.019300	2.000000	1239.25	1759.32
4.019300	2.000000	1225.4	1632.63
4.019300	2.000000	1211.52	1456.98
4.019300	2.000000	1197.62	1299.83
4.019300	2.000000	1183.68	1261.61
4.019300	2.000000	1169.71	1135.02
4.019300	2.000000	1155.71	1142.44
4.019300	2.000000	1141.69	1214.47
4.019300	2.000000	1127.63	1121.98
4.019300	2.000000	1113.55	1025.99
4.019300	2.000000	1099.44	1004.35
4.019300	2.000000	1085.29	924.532
4.019300	2.000000	1071.12	815.973
4.019300	2.000000	1056.91	814.241
4.019300	2.000000	1042.68	822.161
4.019300	2.000000	1028.41	1016.85
4.019300	2.000000	1014.11	1214.55
4.019300	2.000000	999.787	1633.85
4.019300	2.000000	985.43	3448.25
4.019300	2.000000	971.041	3685.3
4.019300	2.000000	956.623	3330.64
4.019300	2.000000	942.174	3333.02
4.019300	2.000000	927.693	1400.17
4.019300	2.000000	913.182	878.436
4.019300	2.000000	898.639	963.448
4.019300	2.000000	884.064	810.572
4.019300	2.000000	869.459	791.897
4.019300	2.000000	854.822	808.958
4.019300	2.000000	840.152	794.101
4.019300	2.000000	825.451	870.874
4.019300	2.000000	810.719	768.289
4.019300	2.000000	795.955	738.711
4.019300	2.000000	781.158	694.402
4.019300	2.000000	766.33	653.985
4.019300	2.000000	751.469	639.618
4.019300	2.000000	736.574	558.905
4.019300	2.000000	721.648	568.725
4.019300	2.000000	706.689	683.178
4.019300	2.000000	691.697	674.348
4.019300	2.000000	676.672	809.997
4.019300	2.000000	661.613	806.387
4.019300	2.000000	646.521	782.762
4.019300	2.000000	631.396	777.396
4.019300	2.000000	616.238	882.599
4.019300	2.000000	601.045	681.726
4.019300	2.000000	585.82	654.947
4.019300	2.000000	570.559	702.092
4.019300	2.000000	555.264	910.677
4.019300	2.000000	539.936	1548.44
4.019300	2.000000	524.572	15937.8
4.019300	2.000000	509.174	4028.55
4.019300	2.000000	493.742	1192.66
4.019300	2.000000	478.273	895.134
4.019300	2.000000	462.771	721.215
4.019300	2.000000	447.232	876.924
4.019300	2.000000	431.658	1001.93
4.019300	2.000000	416.049	989.075
4.019300	2.000000	400.404	1002.61
4.019300	2.000000	384.723	940.737
4.019300	2.000000	369.006	1055.67
4.019300	2.000000	353.252	1075.89
4.019300	2.000000	337.461	1137.76
4.019300	2.000000	321.633	1258.34
4.019300	2.000000	305.77	1650.2
4.019300	2.000000	289.867	1414.85
4.019300	2.000000	273.928	1197.81
4.019300	2.000000	257.951	1090.1
4.019300	2.000000	241.938	991.461
4.019300	2.000000	225.885	918.944
4.019300	2.000000	209.793	742.622
4.019300	2.000000	193.664	575.645