File: data/derived_data/raman/20170920_Gr-NH2_for_Radisurf/20170920 Gr-NH for Radisurf map 1/2D FWHM.txt
#XList		#YList		#IList
-28	-22	6.395258
-24	-22	181.999
-20	-22	101.017
-16	-22	104.326
-12	-22	147.678
-8.000000	-22	148.053
-4.000000	-22	123.805
0.000000	-22	118.454
4.000000	-22	316.244
8.000000	-22	145.328
12	-22	130.125
16	-22	122.947
20	-22	148.104
24	-22	95.0819
28	-22	1007.81
32	-22	89.2368
36	-22	717.374
-26.5	-21.5	0.639823
-22.5	-21.5	131.022
-18.5	-21.5	106.099
-14.5	-21.5	117.649
-10.5	-21.5	135.836
-6.500000	-21.5	107.759
-2.500000	-21.5	153.889
1.500000	-21.5	93.1123
5.500000	-21.5	160.756
9.500000	-21.5	130.528
13.5	-21.5	127.113
17.5	-21.5	112.181
21.5	-21.5	146.707
25.5	-21.5	207.877
29.5	-21.5	83.8763
33.5	-21.5	1654.62
37.5	-21.5	1745.67
-25	-21	118.27
-21	-21	114.469
-17	-21	147.805
-13	-21	95.4215
-9.000000	-21	178.863
-5.000000	-21	179.244
-1.000000	-21	95.9482
3.000000	-21	294.631
7.000000	-21	107.332
11	-21	130.318
15	-21	114.427
19	-21	147.785
23	-21	135.496
27	-21	181.033
31	-21	76.2629
35	-21	2595.12
-27.5	-20.5	2595.12
-23.5	-20.5	115.024
-19.5	-20.5	111.01
-15.5	-20.5	136.98
-11.5	-20.5	945.499
-7.500000	-20.5	175.555
-3.500000	-20.5	117.411
0.500000	-20.5	106.562
4.500000	-20.5	170.796
8.500000	-20.5	96.1813
12.5	-20.5	138.543
16.5	-20.5	149.167
20.5	-20.5	125.625
24.5	-20.5	134.652
28.5	-20.5	102.065
32.5	-20.5	79.5838
36.5	-20.5	2192.89
-26	-20	0.639823
-22	-20	132.991
-18	-20	139.31
-14	-20	115.191
-10	-20	179.535
-6.000000	-20	165.51
-2.000000	-20	143.561
2.000000	-20	334.424
6.000000	-20	138.089
10	-20	115.818
14	-20	120.719
18	-20	90.5341
22	-20	126.216
26	-20	145.066
30	-20	74.6323
34	-20	2062.57
38	-20	0.639823
-24.5	-19.5	120.712
-20.5	-19.5	161.801
-16.5	-19.5	111.149
-12.5	-19.5	0.639823
-8.500000	-19.5	107.055
-4.500000	-19.5	162.678
-0.500000	-19.5	223.618
3.500000	-19.5	106.08
7.500000	-19.5	113.116
11.5	-19.5	120.587
15.5	-19.5	114.783
19.5	-19.5	133.93
23.5	-19.5	138.651
27.5	-19.5	74.5657
31.5	-19.5	102.084
35.5	-19.5	1330.06
-27	-19	1920.8
-23	-19	137.732
-19	-19	121.746
-15	-19	81.3265
-11	-19	1884.79
-7.000000	-19	86.5172
-3.000000	-19	112.033
1.000000	-19	299.907
5.000000	-19	121.763
9.000000	-19	109.254
13	-19	104.949
17	-19	107.553
21	-19	116.316
25	-19	160.782
29	-19	122.487
33	-19	0.639823
37	-19	640.527
-25.5	-18.5	0.639823
-21.5	-18.5	185.155
-17.5	-18.5	116.199
-13.5	-18.5	279.248
-9.500000	-18.5	84.5397
-5.500000	-18.5	186.404
-1.500000	-18.5	109.695
2.500000	-18.5	90.8735
6.500000	-18.5	108.76
10.5	-18.5	145.933
14.5	-18.5	125.125
18.5	-18.5	185.848
22.5	-18.5	138.949
26.5	-18.5	191.764
30.5	-18.5	109.814
34.5	-18.5	1968.78
-28	-18	120.691
-24	-18	1411.67
-20	-18	87.1291
-16	-18	119.043
-12	-18	654.573
-8.000000	-18	33.4717
-4.000000	-18	152.272
0.000000	-18	98.8331
4.000000	-18	121.54
8.000000	-18	110.232
12	-18	108.353
16	-18	122.923
20	-18	120.07
24	-18	139.201
28	-18	110.955
32	-18	1434.07
36	-18	2595.12
-26.5	-17.5	14.4651
-22.5	-17.5	656.031
-18.5	-17.5	78.7659
-14.5	-17.5	90.9061
-10.5	-17.5	1361.84
-6.500000	-17.5	1086.72
-2.500000	-17.5	101.176
1.500000	-17.5	96.2419
5.500000	-17.5	118.493
9.500000	-17.5	142.417
13.5	-17.5	146.9
17.5	-17.5	168.821
21.5	-17.5	150.972
25.5	-17.5	97.4062
29.5	-17.5	151.202
33.5	-17.5	3.518626
37.5	-17.5	1869.49
-25	-17	1890.31
-21	-17	330.5
-17	-17	88.3648
-13	-17	83.7504
-9.000000	-17	119.214
-5.000000	-17	170.84
-1.000000	-17	83.8093
3.000000	-17	74.2682
7.000000	-17	165.537
11	-17	120.797
15	-17	128.654
19	-17	138.904
23	-17	116.363
27	-17	110.192
31	-17	92.2282
35	-17	0.917547
-27.5	-16.5	87.0486
-23.5	-16.5	0.639823
-19.5	-16.5	133.747
-15.5	-16.5	99.0442
-11.5	-16.5	174.47
-7.500000	-16.5	143.534
-3.500000	-16.5	115.737
0.500000	-16.5	78.5158
4.500000	-16.5	130.869
8.500000	-16.5	125.385
12.5	-16.5	119.671
16.5	-16.5	159.887
20.5	-16.5	137.006
24.5	-16.5	118.125
28.5	-16.5	129.711
32.5	-16.5	241.513
36.5	-16.5	0.639823
-26	-16	66.3369
-22	-16	2170.18
-18	-16	189.227
-14	-16	91.1519
-10	-16	139.135
-6.000000	-16	146.626
-2.000000	-16	91.0377
2.000000	-16	130.327
6.000000	-16	206.8
10	-16	124.95
14	-16	114.754
18	-16	101.08
22	-16	125.85
26	-16	125.773
30	-16	101.561
34	-16	819.697
38	-16	1855.79
-24.5	-15.5	2197.07
-20.5	-15.5	194.931
-16.5	-15.5	185.77
-12.5	-15.5	160.506
-8.500000	-15.5	136.033
-4.500000	-15.5	153.898
-0.500000	-15.5	75.3283
3.500000	-15.5	109.777
7.500000	-15.5	128.024
11.5	-15.5	124.567
15.5	-15.5	120.22
19.5	-15.5	84.8279
23.5	-15.5	108.413
27.5	-15.5	86.5555
31.5	-15.5	79.1962
35.5	-15.5	147.182
-27	-15	78.181
-23	-15	2595.12
-19	-15	130.935
-15	-15	160.795
-11	-15	170.28
-7.000000	-15	120.475
-3.000000	-15	132.157
1.000000	-15	100.086
5.000000	-15	123.323
9.000000	-15	136.143
13	-15	110.765
17	-15	110.23
21	-15	125.528
25	-15	75.2716
29	-15	83.2178
33	-15	104.199
37	-15	81.4072
-25.5	-14.5	102.838
-21.5	-14.5	48.597
-17.5	-14.5	216.081
-13.5	-14.5	141.142
-9.500000	-14.5	122.315
-5.500000	-14.5	137.835
-1.500000	-14.5	110.425
2.500000	-14.5	102.987
6.500000	-14.5	108.389
10.5	-14.5	156.4
14.5	-14.5	106.714
18.5	-14.5	117.368
22.5	-14.5	791.911
26.5	-14.5	84.937
30.5	-14.5	89.4292
34.5	-14.5	64.8859
-28	-14	64.297
-24	-14	0.639823
-20	-14	675.469
-16	-14	138.719
-12	-14	130.005
-8.000000	-14	126.975
-4.000000	-14	161.705
0.000000	-14	98.2492
4.000000	-14	94.8078
8.000000	-14	154.289
12	-14	163.389
16	-14	116.678
20	-14	137.273
24	-14	136.388
28	-14	86.2652
32	-14	104.927
36	-14	107.145
-26.5	-13.5	74.0796
-22.5	-13.5	2595.12
-18.5	-13.5	145.223
-14.5	-13.5	131.941
-10.5	-13.5	130.976
-6.500000	-13.5	138.595
-2.500000	-13.5	146.749
1.500000	-13.5	118.246
5.500000	-13.5	129.48
9.500000	-13.5	128.888
13.5	-13.5	120.798
17.5	-13.5	126.704
21.5	-13.5	5.346789
25.5	-13.5	170.943
29.5	-13.5	76.2918
33.5	-13.5	81.2995
37.5	-13.5	80.2459
-25	-13	1182.33
-21	-13	77.1266
-17	-13	114.246
-13	-13	154.577
-9.000000	-13	150.984
-5.000000	-13	147.2
-1.000000	-13	100.388
3.000000	-13	108.559
7.000000	-13	117.335
11	-13	145.579
15	-13	119.272
19	-13	97.5056
23	-13	141.236
27	-13	100.14
31	-13	52.8474
35	-13	78.1196
-27.5	-12.5	224.01
-23.5	-12.5	0.639823
-19.5	-12.5	164.37
-15.5	-12.5	162.932
-11.5	-12.5	118.051
-7.500000	-12.5	138.985
-3.500000	-12.5	122.648
0.500000	-12.5	117.661
4.500000	-12.5	99.4039
8.500000	-12.5	84.1017
12.5	-12.5	112.283
16.5	-12.5	110.394
20.5	-12.5	167.494
24.5	-12.5	263.3
28.5	-12.5	81.8838
32.5	-12.5	59.1026
36.5	-12.5	91.5488
-26	-12	137.604
-22	-12	0.639823
-18	-12	155.059
-14	-12	171.814
-10	-12	198.612
-6.000000	-12	181.474
-2.000000	-12	119.335
2.000000	-12	112.211
6.000000	-12	87.0227
10	-12	61.7611
14	-12	0.639823
18	-12	108.211
22	-12	785.497
26	-12	148.683
30	-12	120.613
34	-12	75.0581
38	-12	79.4747
-24.5	-11.5	2595.12
-20.5	-11.5	1642.48
-16.5	-11.5	167.512
-12.5	-11.5	114.829
-8.500000	-11.5	142.725
-4.500000	-11.5	138.201
-0.500000	-11.5	104.214
3.500000	-11.5	111.775
7.500000	-11.5	119.495
11.5	-11.5	2529.66
15.5	-11.5	148.01
19.5	-11.5	96.7632
23.5	-11.5	203.782
27.5	-11.5	83.6088
31.5	-11.5	0.639823
35.5	-11.5	73.8594
-27	-11	658.091
-23	-11	2595.12
-19	-11	173.746
-15	-11	165.855
-11	-11	102.304
-7.000000	-11	146.791
-3.000000	-11	158.809
1.000000	-11	103.548
5.000000	-11	114.933
9.000000	-11	95.8565
13	-11	0.639823
17	-11	100.89
21	-11	182.06
25	-11	121.335
29	-11	208.17
33	-11	32.91
37	-11	65.7276
-25.5	-10.5	1423.55
-21.5	-10.5	2292.09
-17.5	-10.5	160.756
-13.5	-10.5	130.546
-9.500000	-10.5	177.212
-5.500000	-10.5	142.709
-1.500000	-10.5	156.577
2.500000	-10.5	91.8196
6.500000	-10.5	106.68
10.5	-10.5	85.5906
14.5	-10.5	0.639823
18.5	-10.5	109.801
22.5	-10.5	121.826
26.5	-10.5	134.531
30.5	-10.5	483.535
34.5	-10.5	45.1709
-28	-10	149.026
-24	-10	248.781
-20	-10	147.384
-16	-10	195.695
-12	-10	108.647
-8.000000	-10	225.858
-4.000000	-10	170.283
0.000000	-10	168.589
4.000000	-10	109.769
8.000000	-10	87.7426
12	-10	163.68
16	-10	535.176
20	-10	81.7357
24	-10	122.677
28	-10	83.5522
32	-10	128.455
36	-10	62.1728
-26.5	-9.500000	157.806
-22.5	-9.500000	189.011
-18.5	-9.500000	153.925
-14.5	-9.500000	167.223
-10.5	-9.500000	139.934
-6.500000	-9.500000	128.37
-2.500000	-9.500000	165.863
1.500000	-9.500000	95.7753
5.500000	-9.500000	97.3346
9.500000	-9.500000	103.081
13.5	-9.500000	128.495
17.5	-9.500000	128.226
21.5	-9.500000	185.932
25.5	-9.500000	143.601
29.5	-9.500000	213.003
33.5	-9.500000	141.242
37.5	-9.500000	64.4634
-25	-9.000000	145.371
-21	-9.000000	89.6559
-17	-9.000000	137.169
-13	-9.000000	146.298
-9.000000	-9.000000	195.75
-5.000000	-9.000000	151.914
-1.000000	-9.000000	195.6
3.000000	-9.000000	157.424
7.000000	-9.000000	75.761
11	-9.000000	86.89
15	-9.000000	147.101
19	-9.000000	106.077
23	-9.000000	165.458
27	-9.000000	107.021
31	-9.000000	397.024
35	-9.000000	151.093
-27.5	-8.500000	185.673
-23.5	-8.500000	141.592
-19.5	-8.500000	203.754
-15.5	-8.500000	204.685
-11.5	-8.500000	337.697
-7.500000	-8.500000	129.089
-3.500000	-8.500000	159.793
0.500000	-8.500000	135.834
4.500000	-8.500000	104.05
8.500000	-8.500000	111.138
12.5	-8.500000	87.9107
16.5	-8.500000	170.367
20.5	-8.500000	95.0437
24.5	-8.500000	141.667
28.5	-8.500000	82.6367
32.5	-8.500000	130.689
36.5	-8.500000	52.9835
-26	-8.000000	541.501
-22	-8.000000	177.587
-18	-8.000000	186.441
-14	-8.000000	173.658
-10	-8.000000	141.612
-6.000000	-8.000000	118.55
-2.000000	-8.000000	164.668
2.000000	-8.000000	109.393
6.000000	-8.000000	75.688
10	-8.000000	93.8465
14	-8.000000	97.6348
18	-8.000000	122.022
22	-8.000000	152.756
26	-8.000000	116.12
30	-8.000000	95.8806
34	-8.000000	129.506
38	-8.000000	90.2696
-24.5	-7.500000	162.177
-20.5	-7.500000	197.59
-16.5	-7.500000	162.311
-12.5	-7.500000	213.275
-8.500000	-7.500000	139.689
-4.500000	-7.500000	148.516
-0.500000	-7.500000	157.498
3.500000	-7.500000	94.8468
7.500000	-7.500000	80.5943
11.5	-7.500000	152.329
15.5	-7.500000	100.718
19.5	-7.500000	149.958
23.5	-7.500000	147.439
27.5	-7.500000	76.3801
31.5	-7.500000	154.566
35.5	-7.500000	97.948
-27	-7.000000	1048.39
-23	-7.000000	161.537
-19	-7.000000	167.758
-15	-7.000000	162.797
-11	-7.000000	198.804
-7.000000	-7.000000	176.605
-3.000000	-7.000000	145.207
1.000000	-7.000000	180.09
5.000000	-7.000000	72.3019
9.000000	-7.000000	124.858
13	-7.000000	82.5371
17	-7.000000	121.42
21	-7.000000	141.795
25	-7.000000	159.475
29	-7.000000	73.0623
33	-7.000000	112.519
37	-7.000000	166.224
-25.5	-6.500000	235.347
-21.5	-6.500000	153.703
-17.5	-6.500000	226.221
-13.5	-6.500000	166.022
-9.500000	-6.500000	146.191
-5.500000	-6.500000	147.609
-1.500000	-6.500000	114.92
2.500000	-6.500000	127.916
6.500000	-6.500000	79.3816
10.5	-6.500000	141.109
14.5	-6.500000	116.261
18.5	-6.500000	145.421
22.5	-6.500000	148.212
26.5	-6.500000	70.5752
30.5	-6.500000	107.876
34.5	-6.500000	91.0563
-28	-6.000000	125.744
-24	-6.000000	226.427
-20	-6.000000	167.992
-16	-6.000000	155.754
-12	-6.000000	138.936
-8.000000	-6.000000	184.953
-4.000000	-6.000000	147.648
0.000000	-6.000000	116.673
4.000000	-6.000000	150.037
8.000000	-6.000000	135.197
12	-6.000000	123.139
16	-6.000000	123.137
20	-6.000000	158.859
24	-6.000000	160.801
28	-6.000000	93.0266
32	-6.000000	103.751
36	-6.000000	98.4307
-26.5	-5.500000	214.996
-22.5	-5.500000	207.054
-18.5	-5.500000	148.133
-14.5	-5.500000	149.697
-10.5	-5.500000	940.018
-6.500000	-5.500000	94.0596
-2.500000	-5.500000	67.9088
1.500000	-5.500000	134.75
5.500000	-5.500000	93.2404
9.500000	-5.500000	113.657
13.5	-5.500000	122.326
17.5	-5.500000	142.334
21.5	-5.500000	156.667
25.5	-5.500000	88.9686
29.5	-5.500000	68.8126
33.5	-5.500000	112.866
37.5	-5.500000	127.444
-25	-5.000000	112.674
-21	-5.000000	170.699
-17	-5.000000	181.599
-13	-5.000000	220.405
-9.000000	-5.000000	1502.47
-5.000000	-5.000000	290.593
-1.000000	-5.000000	133.997
3.000000	-5.000000	91.8879
7.000000	-5.000000	108.671
11	-5.000000	171.919
15	-5.000000	134.391
19	-5.000000	132.386
23	-5.000000	130.089
27	-5.000000	92.9892
31	-5.000000	127.704
35	-5.000000	131.258
-27.5	-4.500000	126.051
-23.5	-4.500000	137.705
-19.5	-4.500000	125.515
-15.5	-4.500000	114.811
-11.5	-4.500000	1521.22
-7.500000	-4.500000	376.596
-3.500000	-4.500000	3.859285
0.500000	-4.500000	140.781
4.500000	-4.500000	92.7694
8.500000	-4.500000	92.739
12.5	-4.500000	155.147
16.5	-4.500000	131.991
20.5	-4.500000	109.861
24.5	-4.500000	154.104
28.5	-4.500000	122.042
32.5	-4.500000	79.8375
36.5	-4.500000	133.547
-26	-4.000000	31.8975
-22	-4.000000	165.948
-18	-4.000000	165.084
-14	-4.000000	146.187
-10	-4.000000	188.4
-6.000000	-4.000000	1884.46
-2.000000	-4.000000	133.901
2.000000	-4.000000	145.652
6.000000	-4.000000	256.916
10	-4.000000	74.5984
14	-4.000000	129.746
18	-4.000000	130.502
22	-4.000000	141.577
26	-4.000000	83.5994
30	-4.000000	80.8029
34	-4.000000	124.062
38	-4.000000	95.9172
-24.5	-3.500000	87.0782
-20.5	-3.500000	180.761
-16.5	-3.500000	121.415
-12.5	-3.500000	92.5606
-8.500000	-3.500000	2595.12
-4.500000	-3.500000	0.988552
-0.500000	-3.500000	109.394
3.500000	-3.500000	108.167
7.500000	-3.500000	152.654
11.5	-3.500000	85.1948
15.5	-3.500000	136.35
19.5	-3.500000	121.764
23.5	-3.500000	141.951
27.5	-3.500000	120.927
31.5	-3.500000	1120.23
35.5	-3.500000	124.233
-27	-3.000000	89.3365
-23	-3.000000	109.743
-19	-3.000000	140.328
-15	-3.000000	101.452
-11	-3.000000	129.914
-7.000000	-3.000000	0.639823
-3.000000	-3.000000	1050.16
1.000000	-3.000000	162.461
5.000000	-3.000000	126.433
9.000000	-3.000000	117.145
13	-3.000000	111.439
17	-3.000000	137.023
21	-3.000000	114.503
25	-3.000000	119.762
29	-3.000000	142.436
33	-3.000000	35.8045
37	-3.000000	97.2947
-25.5	-2.500000	482.037
-21.5	-2.500000	123.762
-17.5	-2.500000	111.51
-13.5	-2.500000	121.907
-9.500000	-2.500000	54.7159
-5.500000	-2.500000	2595.12
-1.500000	-2.500000	164.403
2.500000	-2.500000	92.9751
6.500000	-2.500000	95.4605
10.5	-2.500000	148.575
14.5	-2.500000	115.389
18.5	-2.500000	128.148
22.5	-2.500000	117.255
26.5	-2.500000	101.361
30.5	-2.500000	129.279
34.5	-2.500000	111.641
-28	-2.000000	102.579
-24	-2.000000	0.639823
-20	-2.000000	258.553
-16	-2.000000	91.2696
-12	-2.000000	57.4397
-8.000000	-2.000000	133.641
-4.000000	-2.000000	0.639823
0.000000	-2.000000	118.625
4.000000	-2.000000	392.81
8.000000	-2.000000	323.557
12	-2.000000	130.505
16	-2.000000	129.659
20	-2.000000	109.122
24	-2.000000	142.808
28	-2.000000	102.77
32	-2.000000	113.604
36	-2.000000	99.0855
-26.5	-1.500000	18.6256
-22.5	-1.500000	0.639823
-18.5	-1.500000	132.558
-14.5	-1.500000	98.0936
-10.5	-1.500000	114.445
-6.500000	-1.500000	352.978
-2.500000	-1.500000	265.373
1.500000	-1.500000	102.343
5.500000	-1.500000	92.1247
9.500000	-1.500000	162.58
13.5	-1.500000	120.293
17.5	-1.500000	161.254
21.5	-1.500000	121.359
25.5	-1.500000	119.029
29.5	-1.500000	124.243
33.5	-1.500000	45.2392
37.5	-1.500000	89.4623
-25	-1.000000	19.6907
-21	-1.000000	1102.02
-17	-1.000000	100.527
-13	-1.000000	127.922
-9.000000	-1.000000	111.535
-5.000000	-1.000000	0.639823
-1.000000	-1.000000	146.556
3.000000	-1.000000	0.639823
7.000000	-1.000000	133.044
11	-1.000000	158.927
15	-1.000000	121.96
19	-1.000000	119.081
23	-1.000000	127.439
27	-1.000000	112.174
31	-1.000000	95.1606
35	-1.000000	99.7465
-27.5	-0.500000	108.856
-23.5	-0.500000	1669.67
-19.5	-0.500000	143.907
-15.5	-0.500000	91.1163
-11.5	-0.500000	172.796
-7.500000	-0.500000	738.093
-3.500000	-0.500000	1144.5
0.500000	-0.500000	107.587
4.500000	-0.500000	105.016
8.500000	-0.500000	198.196
12.5	-0.500000	141.421
16.5	-0.500000	166.276
20.5	-0.500000	110.764
24.5	-0.500000	137.591
28.5	-0.500000	109.21
32.5	-0.500000	293.364
36.5	-0.500000	142.149
-26	0.000000	121.437
-22	0.000000	2.851012
-18	0.000000	115.695
-14	0.000000	142.098
-10	0.000000	106.873
-6.000000	0.000000	2235.1
-2.000000	0.000000	143.576
2.000000	0.000000	0.639823
6.000000	0.000000	99.9811
10	0.000000	140.365
14	0.000000	122.916
18	0.000000	120.895
22	0.000000	131.122
26	0.000000	187.29
30	0.000000	133.944
34	0.000000	191.484
38	0.000000	115.972
-24.5	0.500000	124.809
-20.5	0.500000	70.8126
-16.5	0.500000	90.584
-12.5	0.500000	145.921
-8.500000	0.500000	114.331
-4.500000	0.500000	0.639823
-0.500000	0.500000	131.958
3.500000	0.500000	105.795
7.500000	0.500000	129.488
11.5	0.500000	103.497
15.5	0.500000	120.576
19.5	0.500000	132.084
23.5	0.500000	122.994
27.5	0.500000	120.103
31.5	0.500000	94.7413
35.5	0.500000	23.8523
-27	1.000000	92.4148
-23	1.000000	166.81
-19	1.000000	181.819
-15	1.000000	129.039
-11	1.000000	137.066
-7.000000	1.000000	21.5817
-3.000000	1.000000	84.2351
1.000000	1.000000	149.789
5.000000	1.000000	154.816
9.000000	1.000000	91.4914
13	1.000000	107.661
17	1.000000	172.065
21	1.000000	126.985
25	1.000000	145.071
29	1.000000	158.858
33	1.000000	21.3223
37	1.000000	104.536
-25.5	1.500000	100.713
-21.5	1.500000	90.7349
-17.5	1.500000	110.113
-13.5	1.500000	166.627
-9.500000	1.500000	120.579
-5.500000	1.500000	55.0426
-1.500000	1.500000	80.8985
2.500000	1.500000	159.46
6.500000	1.500000	127.185
10.5	1.500000	113.091
14.5	1.500000	147.617
18.5	1.500000	109.297
22.5	1.500000	110.939
26.5	1.500000	155.474
30.5	1.500000	130.821
34.5	1.500000	2595.12
-28	2.000000	121.695
-24	2.000000	101.553
-20	2.000000	164.899
-16	2.000000	130.814
-12	2.000000	142.758
-8.000000	2.000000	118.037
-4.000000	2.000000	94.9741
0.000000	2.000000	88.4292
4.000000	2.000000	122.427
8.000000	2.000000	109.566
12	2.000000	141.319
16	2.000000	109.807
20	2.000000	136.159
24	2.000000	131.83
28	2.000000	95.7003
32	2.000000	2.112821
36	2.000000	33.6231
-26.5	2.500000	78.7523
-22.5	2.500000	104.846
-18.5	2.500000	135.397
-14.5	2.500000	122.649
-10.5	2.500000	136.558
-6.500000	2.500000	83.5192
-2.500000	2.500000	63.7261
1.500000	2.500000	154.586
5.500000	2.500000	127.407
9.500000	2.500000	121.481
13.5	2.500000	127.263
17.5	2.500000	136.516
21.5	2.500000	110.08
25.5	2.500000	194.56
29.5	2.500000	115.195
33.5	2.500000	2292.92
37.5	2.500000	110.31
-25	3.000000	77.9839
-21	3.000000	130.594
-17	3.000000	134.959
-13	3.000000	161.271
-9.000000	3.000000	113.786
-5.000000	3.000000	93.0665
-1.000000	3.000000	70.9857
3.000000	3.000000	146.323
7.000000	3.000000	157.347
11	3.000000	154.949
15	3.000000	141.323
19	3.000000	132.327
23	3.000000	126.456
27	3.000000	136.556
31	3.000000	97.1097
35	3.000000	1780.12
-27.5	3.500000	118.414
-23.5	3.500000	98.7593
-19.5	3.500000	177.557
-15.5	3.500000	134.101
-11.5	3.500000	142.906
-7.500000	3.500000	90.8031
-3.500000	3.500000	87.9858
0.500000	3.500000	104.777
4.500000	3.500000	131.158
8.500000	3.500000	110.32
12.5	3.500000	129.533
16.5	3.500000	128.948
20.5	3.500000	121.014
24.5	3.500000	119.444
28.5	3.500000	129.402
32.5	3.500000	829.582
36.5	3.500000	152.503
-26	4.000000	138.222
-22	4.000000	130.492
-18	4.000000	137.897
-14	4.000000	149.161
-10	4.000000	121.913
-6.000000	4.000000	101.776
-2.000000	4.000000	90.3299
2.000000	4.000000	183.448
6.000000	4.000000	162.379
10	4.000000	123.687
14	4.000000	130.52
18	4.000000	108.781
22	4.000000	130.748
26	4.000000	169.097
30	4.000000	92.9334
34	4.000000	268.233
38	4.000000	163.936
-24.5	4.500000	107.59
-20.5	4.500000	74.7475
-16.5	4.500000	112.938
-12.5	4.500000	165.95
-8.500000	4.500000	127.926
-4.500000	4.500000	104.872
-0.500000	4.500000	94.7854
3.500000	4.500000	120.758
7.500000	4.500000	150.701
11.5	4.500000	153.091
15.5	4.500000	166.45
19.5	4.500000	158.29
23.5	4.500000	130.049
27.5	4.500000	116.736
31.5	4.500000	42.4977
35.5	4.500000	135.755
-27	5.000000	152.41
-23	5.000000	167.912
-19	5.000000	135.583
-15	5.000000	187.4
-11	5.000000	138.434
-7.000000	5.000000	101.798
-3.000000	5.000000	81.0861
1.000000	5.000000	155.002
5.000000	5.000000	98.8097
9.000000	5.000000	116.96
13	5.000000	197.262
17	5.000000	151.359
21	5.000000	136.777
25	5.000000	97.1133
29	5.000000	127.452
33	5.000000	323.812
37	5.000000	119.937
-25.5	5.500000	134.354
-21.5	5.500000	92.8759
-17.5	5.500000	154.599
-13.5	5.500000	154.28
-9.500000	5.500000	150.846
-5.500000	5.500000	85.9971
-1.500000	5.500000	109.695
2.500000	5.500000	113.427
6.500000	5.500000	90.2607
10.5	5.500000	130.998
14.5	5.500000	139.61
18.5	5.500000	152.303
22.5	5.500000	108.677
26.5	5.500000	91.5567
30.5	5.500000	127.666
34.5	5.500000	126.374
-28	6.000000	149.912
-24	6.000000	137.531
-20	6.000000	95.9514
-16	6.000000	156.13
-12	6.000000	121.381
-8.000000	6.000000	150.932
-4.000000	6.000000	88.9977
0.000000	6.000000	105.964
4.000000	6.000000	118.082
8.000000	6.000000	88.0917
12	6.000000	89.1098
16	6.000000	106.481
20	6.000000	117.746
24	6.000000	105.77
28	6.000000	99.3502
32	6.000000	81.4974
36	6.000000	119.06
-26.5	6.500000	127.269
-22.5	6.500000	110.462
-18.5	6.500000	98.9154
-14.5	6.500000	148.562
-10.5	6.500000	138.875
-6.500000	6.500000	148.927
-2.500000	6.500000	92.1321
1.500000	6.500000	158.717
5.500000	6.500000	106.719
9.500000	6.500000	89.453
13.5	6.500000	124.639
17.5	6.500000	99.7618
21.5	6.500000	115.368
25.5	6.500000	122.415
29.5	6.500000	110.493
33.5	6.500000	121.867
37.5	6.500000	100.73
-25	7.000000	958.677
-21	7.000000	122.926
-17	7.000000	95.9904
-13	7.000000	188.63
-9.000000	7.000000	196.433
-5.000000	7.000000	156.097
-1.000000	7.000000	83.6745
3.000000	7.000000	122.077
7.000000	7.000000	94.0346
11	7.000000	80.8327
15	7.000000	109.945
19	7.000000	96.2595
23	7.000000	145.225
27	7.000000	120.213
31	7.000000	108.323
35	7.000000	143.601
-27.5	7.500000	123.607
-23.5	7.500000	362.448
-19.5	7.500000	91.1125
-15.5	7.500000	138.033
-11.5	7.500000	182.229
-7.500000	7.500000	199.372
-3.500000	7.500000	94.6518
0.500000	7.500000	114.455
4.500000	7.500000	150.201
8.500000	7.500000	81.2725
12.5	7.500000	120.93
16.5	7.500000	157.916
20.5	7.500000	120.722
24.5	7.500000	83.8092
28.5	7.500000	110.179
32.5	7.500000	122.233
36.5	7.500000	141.591
-26	8.000000	127.845
-22	8.000000	126.017
-18	8.000000	98.0971
-14	8.000000	197.478
-10	8.000000	158.355
-6.000000	8.000000	156.24
-2.000000	8.000000	103.865
2.000000	8.000000	132.731
6.000000	8.000000	97.0518
10	8.000000	80.5172
14	8.000000	153.123
18	8.000000	102.395
22	8.000000	107.482
26	8.000000	107.43
30	8.000000	124.421
34	8.000000	91.0053
38	8.000000	146.333
-24.5	8.500000	2595.12
-20.5	8.500000	106.469
-16.5	8.500000	156.132
-12.5	8.500000	175.085
-8.500000	8.500000	155.622
-4.500000	8.500000	158.399
-0.500000	8.500000	133.983
3.500000	8.500000	86.6148
7.500000	8.500000	96.1764
11.5	8.500000	130.295
15.5	8.500000	129.624
19.5	8.500000	100.423
23.5	8.500000	99.8278
27.5	8.500000	119.461
31.5	8.500000	119.518
35.5	8.500000	124.08
-27	9.000000	0.639823
-23	9.000000	81.3184
-19	9.000000	122.913
-15	9.000000	217.285
-11	9.000000	200.544
-7.000000	9.000000	165.763
-3.000000	9.000000	138.976
1.000000	9.000000	191.318
5.000000	9.000000	127.118
9.000000	9.000000	111.982
13	9.000000	117.418
17	9.000000	127.132
21	9.000000	126.44
25	9.000000	85.6337
29	9.000000	128.945
33	9.000000	99.0828
37	9.000000	155.393
-25.5	9.500000	0.833494
-21.5	9.500000	139.862
-17.5	9.500000	122.736
-13.5	9.500000	146.174
-9.500000	9.500000	167.893
-5.500000	9.500000	234.799
-1.500000	9.500000	78.4713
2.500000	9.500000	81.4368
6.500000	9.500000	80.7891
10.5	9.500000	140.141
14.5	9.500000	120.444
18.5	9.500000	131.244
22.5	9.500000	103.702
26.5	9.500000	105.79
30.5	9.500000	130.293
34.5	9.500000	112.139
-28	10	1214.62
-24	10	97.2313
-20	10	126.384
-16	10	130.192
-12	10	145.643
-8.000000	10	156.515
-4.000000	10	149.593
0.000000	10	93.782
4.000000	10	141.248
8.000000	10	97.149
12	10	138.856
16	10	101.52
20	10	132.097
24	10	108.806
28	10	106.318
32	10	129.753
36	10	117.996
-26.5	10.5	47.7584
-22.5	10.5	108.365
-18.5	10.5	739.718
-14.5	10.5	154.944
-10.5	10.5	161.834
-6.500000	10.5	161.14
-2.500000	10.5	165.437
1.500000	10.5	96.6876
5.500000	10.5	69.1736
9.500000	10.5	100.791
13.5	10.5	140.435
17.5	10.5	92.2675
21.5	10.5	173.775
25.5	10.5	118.398
29.5	10.5	139.961
33.5	10.5	119.283
37.5	10.5	118.568
-25	11	232.874
-21	11	127.109
-17	11	127.94
-13	11	156.954
-9.000000	11	165.178
-5.000000	11	164.017
-1.000000	11	156.531
3.000000	11	118.44
7.000000	11	105.055
11	11	109.195
15	11	115.904
19	11	96.4628
23	11	159.239
27	11	141.601
31	11	129.749
35	11	99.8169
-27.5	11.5	115.276
-23.5	11.5	106.618
-19.5	11.5	186.798
-15.5	11.5	137.693
-11.5	11.5	158.162
-7.500000	11.5	183.225
-3.500000	11.5	162.189
0.500000	11.5	84.7384
4.500000	11.5	2595.12
8.500000	11.5	156.243
12.5	11.5	154.676
16.5	11.5	121.887
20.5	11.5	103.454
24.5	11.5	100.472
28.5	11.5	130.471
32.5	11.5	104.298
36.5	11.5	124.224
-26	12	104.17
-22	12	157.493
-18	12	266.768
-14	12	576.083
-10	12	187.148
-6.000000	12	183.806
-2.000000	12	145.257
2.000000	12	78.8383
6.000000	12	1.836388
10	12	84.1741
14	12	152.291
18	12	113.982
22	12	105.925
26	12	112.929
30	12	112.174
34	12	105.32
38	12	121.028
-24.5	12.5	2595.12
-20.5	12.5	4.838182
-16.5	12.5	1061.46
-12.5	12.5	171.794
-8.500000	12.5	162.372
-4.500000	12.5	174.192
-0.500000	12.5	111.823
3.500000	12.5	790.334
7.500000	12.5	174.658
11.5	12.5	99.6746
15.5	12.5	143.677
19.5	12.5	110.441
23.5	12.5	152.318
27.5	12.5	123.176
31.5	12.5	128.114
35.5	12.5	96.7055
-27	13	0.639823
-23	13	969.58
-19	13	2595.12
-15	13	785.466
-11	13	134.421
-7.000000	13	136.091
-3.000000	13	164.225
1.000000	13	87.7809
5.000000	13	1897.01
9.000000	13	113.248
13	13	206.676
17	13	129.677
21	13	110.768
25	13	120.144
29	13	130.716
33	13	119.782
37	13	135.035
-25.5	13.5	25.0895
-21.5	13.5	97.7216
-17.5	13.5	0.639823
-13.5	13.5	681.734
-9.500000	13.5	145.997
-5.500000	13.5	202.415
-1.500000	13.5	132.386
2.500000	13.5	690.532
6.500000	13.5	1758.13
10.5	13.5	73.0029
14.5	13.5	134.149
18.5	13.5	114.697
22.5	13.5	146.632
26.5	13.5	125.265
30.5	13.5	144.043
34.5	13.5	86.6945
-28	14	1722.16
-24	14	0.639823
-20	14	1.995822
-16	14	2297.3
-12	14	137.58
-8.000000	14	128.991
-4.000000	14	192.998
0.000000	14	197.751
4.000000	14	264.093
8.000000	14	896.96
12	14	137.824
16	14	121.816
20	14	98.6861
24	14	115.285
28	14	125.134
32	14	121.486
36	14	125.553
-26.5	14.5	2595.12
-22.5	14.5	97.2614
-18.5	14.5	1814.68
-14.5	14.5	2595.12
-10.5	14.5	102.634
-6.500000	14.5	157.023
-2.500000	14.5	133.101
1.500000	14.5	58.0826
5.500000	14.5	256.743
9.500000	14.5	124.733
13.5	14.5	146.234
17.5	14.5	127.687
21.5	14.5	150.705
25.5	14.5	175.676
29.5	14.5	135.361
33.5	14.5	115.928
37.5	14.5	144.833
-25	15	0.661505
-21	15	2595.12
-17	15	193.267
-13	15	1624.45
-9.000000	15	155.697
-5.000000	15	70.743
-1.000000	15	103.797
3.000000	15	741.865
7.000000	15	340.967
11	15	146.687
15	15	180.402
19	15	122.465
23	15	115.997
27	15	137.729
31	15	123.225
35	15	111.576
-27.5	15.5	0.639823
-23.5	15.5	1560.75
-19.5	15.5	550.747
-15.5	15.5	2595.12
-11.5	15.5	154.631
-7.500000	15.5	100.029
-3.500000	15.5	169.266
0.500000	15.5	90.449
4.500000	15.5	215.523
8.500000	15.5	155.208
12.5	15.5	86.84
16.5	15.5	162.626
20.5	15.5	115.885
24.5	15.5	139.155
28.5	15.5	147.505
32.5	15.5	154.817
36.5	15.5	124.901
-26	16	2579.42
-22	16	1762.95
-18	16	2595.12
-14	16	911.486
-10	16	121.407
-6.000000	16	2595.12
-2.000000	16	100.238
2.000000	16	109.364
6.000000	16	40.3947
10	16	133.251
14	16	120.933
18	16	156.581
22	16	117.544
26	16	159.862
30	16	122.49
34	16	155.212
38	16	130.312
-24.5	16.5	2595.12
-20.5	16.5	756.499
-16.5	16.5	6.259691
-12.5	16.5	254.577
-8.500000	16.5	125.407
-4.500000	16.5	122.113
-0.500000	16.5	1662.07
3.500000	16.5	117.944
7.500000	16.5	2204.19
11.5	16.5	145.859
15.5	16.5	105.18
19.5	16.5	97.7104
23.5	16.5	140.035
27.5	16.5	166.361
31.5	16.5	541.335
35.5	16.5	157.829
-27	17	0.639823
-23	17	2365.45
-19	17	2072.51
-15	17	1196.44
-11	17	141.051
-7.000000	17	0.639823
-3.000000	17	2393.01
1.000000	17	181.337
5.000000	17	112.788
9.000000	17	133.38
13	17	148.6
17	17	127.619
21	17	102.288
25	17	110.949
29	17	135.436
33	17	108.891
37	17	1891.28
-25.5	17.5	2595.12
-21.5	17.5	1684.75
-17.5	17.5	212.452
-13.5	17.5	124.701
-9.500000	17.5	82.8996
-5.500000	17.5	1864.84
-1.500000	17.5	0.639823
2.500000	17.5	96.5491
6.500000	17.5	436.957
10.5	17.5	146.794
14.5	17.5	101.916
18.5	17.5	121.989
22.5	17.5	172.982
26.5	17.5	184.478
30.5	17.5	319.363
34.5	17.5	119.645
-28	18	351.296
-24	18	653.219
-20	18	0.639823
-16	18	0.639823
-12	18	150.809
-8.000000	18	258.468
-4.000000	18	2154.63
0.000000	18	138
4.000000	18	132.076
8.000000	18	4.296801
12	18	128.596
16	18	101.28
20	18	93.145
24	18	216.385
28	18	68.669
32	18	0.882863
36	18	752.551
-26.5	18.5	90.916
-22.5	18.5	2595.12
-18.5	18.5	2101.68
-14.5	18.5	106.947
-10.5	18.5	82.3337
-6.500000	18.5	31.0293
-2.500000	18.5	15.571
1.500000	18.5	94.3213
5.500000	18.5	245.119
9.500000	18.5	245.844
13.5	18.5	92.123
17.5	18.5	190.958
21.5	18.5	153.255
25.5	18.5	103.081
29.5	18.5	144.529
33.5	18.5	145.594
37.5	18.5	74.7526
-25	19	0.639823
-21	19	12.3523
-17	19	2255.28
-13	19	86.0308
-9.000000	19	88.0988
-5.000000	19	99.1707
-1.000000	19	105.976
3.000000	19	92.2641
7.000000	19	47.0496
11	19	98.3585
15	19	110.191
19	19	103.934
23	19	139.876
27	19	1679.43
31	19	627.164
35	19	140.709
-27.5	19.5	88.2964
-23.5	19.5	254.63
-19.5	19.5	2155.87
-15.5	19.5	137.06
-11.5	19.5	87.808
-7.500000	19.5	80.3126
-3.500000	19.5	169.779
0.500000	19.5	95.088
4.500000	19.5	93.2611
8.500000	19.5	2595.12
12.5	19.5	120.489
16.5	19.5	125.626
20.5	19.5	86.4525
24.5	19.5	84.2713
28.5	19.5	2099.76
32.5	19.5	101.251
36.5	19.5	234.569
-26	20	75.8268
-22	20	152.951
-18	20	2484.83
-14	20	0.831715
-10	20	91.0334
-6.000000	20	189.184
-2.000000	20	127.955
2.000000	20	87.7159
6.000000	20	64.4877
10	20	127.961
14	20	125.131
18	20	177.38
22	20	111.636
26	20	126.5
30	20	1267.92
34	20	172.586
38	20	1466.07