File: data/derived_data/raman/20170920_Gr-NH2_for_Radisurf/20170920 Gr-NH for Radisurf map 1/2D int.txt
#XList		#YList		#IList
-28	-22	2.679912
-24	-22	70.4896
-20	-22	12.8139
-16	-22	66.3207
-12	-22	53.1622
-8.000000	-22	107.961
-4.000000	-22	88.8723
0.000000	-22	113.217
4.000000	-22	13.1264
8.000000	-22	113.33
12	-22	88.406
16	-22	100.253
20	-22	134.335
24	-22	8.909187
28	-22	3.898132
32	-22	45.0244
36	-22	0.000000
-26.5	-21.5	1.616733
-22.5	-21.5	65.2088
-18.5	-21.5	76.196
-14.5	-21.5	95.7844
-10.5	-21.5	56.7847
-6.500000	-21.5	86.9572
-2.500000	-21.5	68.9164
1.500000	-21.5	12.017
5.500000	-21.5	75.6523
9.500000	-21.5	77.5656
13.5	-21.5	91.3865
17.5	-21.5	67.1223
21.5	-21.5	108.827
25.5	-21.5	7.668023
29.5	-21.5	69.3967
33.5	-21.5	2.190500
37.5	-21.5	1.324676
-25	-21	39.5985
-21	-21	69.66
-17	-21	61.7537
-13	-21	37.925
-9.000000	-21	59.8162
-5.000000	-21	50.0791
-1.000000	-21	80.0897
3.000000	-21	1.041957
7.000000	-21	75.1281
11	-21	73.8255
15	-21	84.2737
19	-21	87.2799
23	-21	94.0212
27	-21	41.2709
31	-21	127.597
35	-21	0.219843
-27.5	-20.5	0.776141
-23.5	-20.5	82.1637
-19.5	-20.5	73.8964
-15.5	-20.5	79.3729
-11.5	-20.5	2.661209
-7.500000	-20.5	40.7768
-3.500000	-20.5	78.7315
0.500000	-20.5	6.167353
4.500000	-20.5	47.086
8.500000	-20.5	99.5238
12.5	-20.5	62.3777
16.5	-20.5	82.118
20.5	-20.5	119.932
24.5	-20.5	65.4126
28.5	-20.5	72.0355
32.5	-20.5	2.120832
36.5	-20.5	1.555414
-26	-20	0.000000
-22	-20	74.5119
-18	-20	73.781
-14	-20	25.1266
-10	-20	40.6887
-6.000000	-20	5.749696
-2.000000	-20	13.7331
2.000000	-20	1.984596
6.000000	-20	104.942
10	-20	74.3693
14	-20	59.3
18	-20	11.5143
22	-20	111.743
26	-20	2.284484
30	-20	137.668
34	-20	2.487150
38	-20	0.565230
-24.5	-19.5	45.7949
-20.5	-19.5	68.6687
-16.5	-19.5	55.22
-12.5	-19.5	0.000000
-8.500000	-19.5	55.0811
-4.500000	-19.5	47.5851
-0.500000	-19.5	2.426522
3.500000	-19.5	87.9438
7.500000	-19.5	77.0265
11.5	-19.5	58.494
15.5	-19.5	77.9586
19.5	-19.5	99.0101
23.5	-19.5	75.7176
27.5	-19.5	41.2489
31.5	-19.5	22.4099
35.5	-19.5	0.769654
-27	-19	2.148634
-23	-19	39.9909
-19	-19	56.5652
-15	-19	134.173
-11	-19	2.087200
-7.000000	-19	7.671818
-3.000000	-19	49.5239
1.000000	-19	1.359913
5.000000	-19	94.1111
9.000000	-19	75.7556
13	-19	57.0721
17	-19	34.3752
21	-19	120.99
25	-19	8.334306
29	-19	105.981
33	-19	0.000000
37	-19	0.000000
-25.5	-18.5	0.000000
-21.5	-18.5	12.3443
-17.5	-18.5	94.6212
-13.5	-18.5	5.565105
-9.500000	-18.5	1.443879
-5.500000	-18.5	23.7033
-1.500000	-18.5	120.295
2.500000	-18.5	109.779
6.500000	-18.5	102.077
10.5	-18.5	71.864
14.5	-18.5	68.9527
18.5	-18.5	60.2039
22.5	-18.5	99.9522
26.5	-18.5	47.503
30.5	-18.5	110.41
34.5	-18.5	2.345738
-28	-18	4.564296
-24	-18	3.592842
-20	-18	8.493098
-16	-18	114.791
-12	-18	3.106084
-8.000000	-18	1.642451
-4.000000	-18	67.811
0.000000	-18	42.55
4.000000	-18	115.366
8.000000	-18	78.4969
12	-18	54.2335
16	-18	63.0807
20	-18	82.807
24	-18	34.8266
28	-18	19.6277
32	-18	2.006099
36	-18	0.452124
-26.5	-17.5	4.218138
-22.5	-17.5	1.407111
-18.5	-17.5	70.504
-14.5	-17.5	109.907
-10.5	-17.5	2.649619
-6.500000	-17.5	1.856874
-2.500000	-17.5	136.09
1.500000	-17.5	84.9058
5.500000	-17.5	88.8227
9.500000	-17.5	79.5641
13.5	-17.5	48.2518
17.5	-17.5	46.995
21.5	-17.5	81.9388
25.5	-17.5	119.578
29.5	-17.5	34.2056
33.5	-17.5	5.275188
37.5	-17.5	0.494922
-25	-17	2.046484
-21	-17	0.954858
-17	-17	89.3609
-13	-17	89.918
-9.000000	-17	1.269091
-5.000000	-17	27.0358
-1.000000	-17	92.4632
3.000000	-17	163.169
7.000000	-17	71.1029
11	-17	72.6519
15	-17	62.128
19	-17	95.2097
23	-17	24.7777
27	-17	71.7835
31	-17	145.021
35	-17	4.190115
-27.5	-16.5	70.8962
-23.5	-16.5	0.000000
-19.5	-16.5	58.692
-15.5	-16.5	140.134
-11.5	-16.5	27.3026
-7.500000	-16.5	9.614352
-3.500000	-16.5	97.5229
0.500000	-16.5	84.4449
4.500000	-16.5	75.936
8.500000	-16.5	65.9065
12.5	-16.5	41.5944
16.5	-16.5	65.3209
20.5	-16.5	63.488
24.5	-16.5	109.308
28.5	-16.5	71.4873
32.5	-16.5	2.127285
36.5	-16.5	2.255462
-26	-16	21.1385
-22	-16	2.123629
-18	-16	90.4589
-14	-16	88.1336
-10	-16	63.2187
-6.000000	-16	70.3389
-2.000000	-16	143.84
2.000000	-16	44.1855
6.000000	-16	60.8519
10	-16	63.505
14	-16	67.75
18	-16	69.7238
22	-16	42.329
26	-16	73.6859
30	-16	87.7968
34	-16	2.453041
38	-16	1.909461
-24.5	-15.5	2.388637
-20.5	-15.5	2.199304
-16.5	-15.5	85.4716
-12.5	-15.5	36.118
-8.500000	-15.5	74.0668
-4.500000	-15.5	85.6322
-0.500000	-15.5	142.253
3.500000	-15.5	60.443
7.500000	-15.5	71.13
11.5	-15.5	62.1563
15.5	-15.5	61.4472
19.5	-15.5	64.9765
23.5	-15.5	8.518951
27.5	-15.5	75.8984
31.5	-15.5	53.9399
35.5	-15.5	63.464
-27	-15	39.9603
-23	-15	1.556368
-19	-15	82.8567
-15	-15	97.5159
-11	-15	53.9733
-7.000000	-15	87.9809
-3.000000	-15	89.3869
1.000000	-15	114.713
5.000000	-15	87.9751
9.000000	-15	74.0292
13	-15	51.5706
17	-15	72.6962
21	-15	30.702
25	-15	11.3396
29	-15	76.1306
33	-15	14.6988
37	-15	76.3267
-25.5	-14.5	3.441852
-21.5	-14.5	2.974490
-17.5	-14.5	76.43
-13.5	-14.5	59.2875
-9.500000	-14.5	89.618
-5.500000	-14.5	75.7422
-1.500000	-14.5	108.361
2.500000	-14.5	88.9411
6.500000	-14.5	109.162
10.5	-14.5	43.5383
14.5	-14.5	73.9617
18.5	-14.5	44.6237
22.5	-14.5	2.223201
26.5	-14.5	8.803276
30.5	-14.5	62.8174
34.5	-14.5	108.204
-28	-14	5.502409
-24	-14	5.586300
-20	-14	5.569550
-16	-14	78.8199
-12	-14	77.1161
-8.000000	-14	77.3728
-4.000000	-14	69.0757
0.000000	-14	131.617
4.000000	-14	80.3672
8.000000	-14	68.8937
12	-14	58.3632
16	-14	80.811
20	-14	6.765871
24	-14	49.9293
28	-14	106.147
32	-14	55.778
36	-14	64.3021
-26.5	-13.5	4.528726
-22.5	-13.5	0.395019
-18.5	-13.5	43.1074
-14.5	-13.5	99.9312
-10.5	-13.5	10.1896
-6.500000	-13.5	78.6747
-2.500000	-13.5	74.4548
1.500000	-13.5	80.0085
5.500000	-13.5	76.1523
9.500000	-13.5	37.841
13.5	-13.5	57.9334
17.5	-13.5	76.8627
21.5	-13.5	4.450045
25.5	-13.5	6.262957
29.5	-13.5	109.453
33.5	-13.5	148.944
37.5	-13.5	77.1802
-25	-13	2.356485
-21	-13	85.3602
-17	-13	50.2095
-13	-13	92.9512
-9.000000	-13	65.9858
-5.000000	-13	78.567
-1.000000	-13	91.8772
3.000000	-13	83.3601
7.000000	-13	133.486
11	-13	9.684112
15	-13	37.2103
19	-13	16.7399
23	-13	31.9565
27	-13	65.5866
31	-13	5.033601
35	-13	63.1258
-27.5	-12.5	12.4375
-23.5	-12.5	1.258621
-19.5	-12.5	4.603113
-15.5	-12.5	57.8017
-11.5	-12.5	71.0641
-7.500000	-12.5	81.8743
-3.500000	-12.5	65.0263
0.500000	-12.5	70.6308
4.500000	-12.5	24.629
8.500000	-12.5	46.8255
12.5	-12.5	4.225722
16.5	-12.5	72.7242
20.5	-12.5	24.5635
24.5	-12.5	79.214
28.5	-12.5	147.972
32.5	-12.5	16.484
36.5	-12.5	81.5
-26	-12	42.0621
-22	-12	0.000000
-18	-12	48.9804
-14	-12	77.748
-10	-12	93.1686
-6.000000	-12	75.5793
-2.000000	-12	67.4234
2.000000	-12	76.8364
6.000000	-12	116.168
10	-12	9.128281
14	-12	10.0313
18	-12	80.1559
22	-12	2.314009
26	-12	36.3792
30	-12	89.5798
34	-12	88.0143
38	-12	76.31
-24.5	-11.5	0.837829
-20.5	-11.5	1.202642
-16.5	-11.5	64.8539
-12.5	-11.5	58.3432
-8.500000	-11.5	91.066
-4.500000	-11.5	61.3138
-0.500000	-11.5	77.6664
3.500000	-11.5	85.9309
7.500000	-11.5	111.941
11.5	-11.5	0.872471
15.5	-11.5	5.140374
19.5	-11.5	27.2685
23.5	-11.5	70.0033
27.5	-11.5	4.432470
31.5	-11.5	2.708217
35.5	-11.5	109.431
-27	-11	0.806030
-23	-11	1.791732
-19	-11	55.9322
-15	-11	65.7836
-11	-11	113.291
-7.000000	-11	53.9331
-3.000000	-11	76.7986
1.000000	-11	86.9526
5.000000	-11	55.5447
9.000000	-11	134.023
13	-11	3.229470
17	-11	73.9059
21	-11	49.911
25	-11	62.9939
29	-11	7.036489
33	-11	3.280601
37	-11	116.584
-25.5	-10.5	1.292223
-21.5	-10.5	1.700285
-17.5	-10.5	77.2146
-13.5	-10.5	55.5433
-9.500000	-10.5	65.836
-5.500000	-10.5	54.2755
-1.500000	-10.5	19.6298
2.500000	-10.5	103.745
6.500000	-10.5	113.616
10.5	-10.5	51.9249
14.5	-10.5	0.107940
18.5	-10.5	57.0042
22.5	-10.5	15.0946
26.5	-10.5	54.4074
30.5	-10.5	2.862276
34.5	-10.5	7.939681
-28	-10	33.0103
-24	-10	8.115008
-20	-10	25.5431
-16	-10	79.6278
-12	-10	57.3478
-8.000000	-10	66.4867
-4.000000	-10	48.1814
0.000000	-10	50.6673
4.000000	-10	93.5402
8.000000	-10	105.686
12	-10	10.254
16	-10	2.650047
20	-10	132.089
24	-10	62.6864
28	-10	1.993790
32	-10	1.025671
36	-10	8.477598
-26.5	-9.500000	0.748075
-22.5	-9.500000	35.3414
-18.5	-9.500000	79.0438
-14.5	-9.500000	75.2407
-10.5	-9.500000	9.607246
-6.500000	-9.500000	52.1125
-2.500000	-9.500000	51.6714
1.500000	-9.500000	120.129
5.500000	-9.500000	103.594
9.500000	-9.500000	83.009
13.5	-9.500000	10.5122
17.5	-9.500000	5.454482
21.5	-9.500000	31.4214
25.5	-9.500000	90.3691
29.5	-9.500000	1.252975
33.5	-9.500000	28.2997
37.5	-9.500000	85.7402
-25	-9.000000	3.583961
-21	-9.000000	6.229941
-17	-9.000000	63.8559
-13	-9.000000	14.2829
-9.000000	-9.000000	69.1767
-5.000000	-9.000000	67.8264
-1.000000	-9.000000	41.4372
3.000000	-9.000000	95.123
7.000000	-9.000000	65.0887
11	-9.000000	125.841
15	-9.000000	4.317874
19	-9.000000	102.07
23	-9.000000	62.5371
27	-9.000000	25.4527
31	-9.000000	1.753183
35	-9.000000	5.983523
-27.5	-8.500000	6.786485
-23.5	-8.500000	80.577
-19.5	-8.500000	26.4848
-15.5	-8.500000	79.9994
-11.5	-8.500000	4.042247
-7.500000	-8.500000	81.4541
-3.500000	-8.500000	62.533
0.500000	-8.500000	99.6752
4.500000	-8.500000	102.131
8.500000	-8.500000	111.704
12.5	-8.500000	54.9228
16.5	-8.500000	21.735
20.5	-8.500000	148
24.5	-8.500000	65.7889
28.5	-8.500000	43.5121
32.5	-8.500000	61.3642
36.5	-8.500000	4.779374
-26	-8.000000	0.000000
-22	-8.000000	69.5982
-18	-8.000000	79.5267
-14	-8.000000	82.0355
-10	-8.000000	75.2363
-6.000000	-8.000000	61.726
-2.000000	-8.000000	31.9023
2.000000	-8.000000	82.6292
6.000000	-8.000000	88.2622
10	-8.000000	137.508
14	-8.000000	75.361
18	-8.000000	42.4527
22	-8.000000	64.107
26	-8.000000	85.347
30	-8.000000	89.1435
34	-8.000000	62.6133
38	-8.000000	4.842299
-24.5	-7.500000	29.715
-20.5	-7.500000	55.895
-16.5	-7.500000	76.4753
-12.5	-7.500000	47.7894
-8.500000	-7.500000	78.048
-4.500000	-7.500000	61.974
-0.500000	-7.500000	84.6593
3.500000	-7.500000	131.467
7.500000	-7.500000	68.1474
11.5	-7.500000	34.1285
15.5	-7.500000	131.342
19.5	-7.500000	23.162
23.5	-7.500000	23.9251
27.5	-7.500000	94.6223
31.5	-7.500000	19.336
35.5	-7.500000	54.1256
-27	-7.000000	3.357201
-23	-7.000000	77.3167
-19	-7.000000	49.7021
-15	-7.000000	64.422
-11	-7.000000	11.5602
-7.000000	-7.000000	64.6614
-3.000000	-7.000000	47.8116
1.000000	-7.000000	86.918
5.000000	-7.000000	92.9005
9.000000	-7.000000	54.3973
13	-7.000000	76.4902
17	-7.000000	64.322
21	-7.000000	69.7161
25	-7.000000	38.7415
29	-7.000000	112.874
33	-7.000000	104.034
37	-7.000000	29.1834
-25.5	-6.500000	0.529388
-21.5	-6.500000	75.9118
-17.5	-6.500000	73.1203
-13.5	-6.500000	70.8406
-9.500000	-6.500000	47.0613
-5.500000	-6.500000	55.5303
-1.500000	-6.500000	72.0335
2.500000	-6.500000	57.8795
6.500000	-6.500000	80.2874
10.5	-6.500000	40.8336
14.5	-6.500000	78.2269
18.5	-6.500000	49.4187
22.5	-6.500000	66.6609
26.5	-6.500000	64.8923
30.5	-6.500000	53.8629
34.5	-6.500000	103.033
-28	-6.000000	21.7375
-24	-6.000000	51.1092
-20	-6.000000	69.6112
-16	-6.000000	72.5314
-12	-6.000000	71.4045
-8.000000	-6.000000	57.0371
-4.000000	-6.000000	47.9615
0.000000	-6.000000	47.9121
4.000000	-6.000000	74.6531
8.000000	-6.000000	71.8077
12	-6.000000	65.4883
16	-6.000000	113.266
20	-6.000000	52.6217
24	-6.000000	57.2962
28	-6.000000	111.512
32	-6.000000	7.329723
36	-6.000000	44.3847
-26.5	-5.500000	1.744793
-22.5	-5.500000	82.4529
-18.5	-5.500000	71.4799
-14.5	-5.500000	76.7311
-10.5	-5.500000	2.892671
-6.500000	-5.500000	63.9312
-2.500000	-5.500000	11.6917
1.500000	-5.500000	31.2119
5.500000	-5.500000	104.351
9.500000	-5.500000	83.0018
13.5	-5.500000	111.191
17.5	-5.500000	82.5876
21.5	-5.500000	42.5761
25.5	-5.500000	65.9685
29.5	-5.500000	84.4495
33.5	-5.500000	51.183
37.5	-5.500000	58.6802
-25	-5.000000	0.612449
-21	-5.000000	81.8146
-17	-5.000000	70.9276
-13	-5.000000	17.1294
-9.000000	-5.000000	2.614864
-5.000000	-5.000000	3.114445
-1.000000	-5.000000	70.7028
3.000000	-5.000000	95.8368
7.000000	-5.000000	24.4741
11	-5.000000	60.1689
15	-5.000000	64.8857
19	-5.000000	48.6714
23	-5.000000	46.9321
27	-5.000000	60.7395
31	-5.000000	35.0209
35	-5.000000	59.2582
-27.5	-4.500000	17.2771
-23.5	-4.500000	44.0582
-19.5	-4.500000	77.2091
-15.5	-4.500000	110.315
-11.5	-4.500000	3.667766
-7.500000	-4.500000	4.550354
-3.500000	-4.500000	9.580695
0.500000	-4.500000	54.0955
4.500000	-4.500000	48.3582
8.500000	-4.500000	115.991
12.5	-4.500000	76.3334
16.5	-4.500000	56.4551
20.5	-4.500000	41.9844
24.5	-4.500000	47.0016
28.5	-4.500000	84.7341
32.5	-4.500000	31.447
36.5	-4.500000	43.3251
-26	-4.000000	3.054040
-22	-4.000000	75.0033
-18	-4.000000	74.9859
-14	-4.000000	35.1941
-10	-4.000000	0.000000
-6.000000	-4.000000	1.708258
-2.000000	-4.000000	59.6959
2.000000	-4.000000	29.5242
6.000000	-4.000000	4.634356
10	-4.000000	115.188
14	-4.000000	49.018
18	-4.000000	53.0114
22	-4.000000	43.5209
26	-4.000000	48.7686
30	-4.000000	87.8799
34	-4.000000	40.1497
38	-4.000000	117.041
-24.5	-3.500000	0.971287
-20.5	-3.500000	62.0828
-16.5	-3.500000	79.8202
-12.5	-3.500000	9.170583
-8.500000	-3.500000	0.893676
-4.500000	-3.500000	19.8542
-0.500000	-3.500000	65.1643
3.500000	-3.500000	26.5603
7.500000	-3.500000	5.688981
11.5	-3.500000	105.234
15.5	-3.500000	46.161
19.5	-3.500000	45.6953
23.5	-3.500000	44.4779
27.5	-3.500000	70.5029
31.5	-3.500000	1.506425
35.5	-3.500000	23.3101
-27	-3.000000	7.610695
-23	-3.000000	24.5398
-19	-3.000000	56.7769
-15	-3.000000	83.0443
-11	-3.000000	0.183602
-7.000000	-3.000000	0.000000
-3.000000	-3.000000	4.241360
1.000000	-3.000000	61.356
5.000000	-3.000000	12.4916
9.000000	-3.000000	18.9606
13	-3.000000	52.2154
17	-3.000000	50.005
21	-3.000000	43.6962
25	-3.000000	50.4745
29	-3.000000	70.6158
33	-3.000000	4.255119
37	-3.000000	34.129
-25.5	-2.500000	2.319752
-21.5	-2.500000	11.4656
-17.5	-2.500000	75.183
-13.5	-2.500000	24.9872
-9.500000	-2.500000	6.044703
-5.500000	-2.500000	0.695940
-1.500000	-2.500000	58.1008
2.500000	-2.500000	74.1713
6.500000	-2.500000	9.530079
10.5	-2.500000	79.8665
14.5	-2.500000	49.7178
18.5	-2.500000	49.1757
22.5	-2.500000	40.7388
26.5	-2.500000	48.3469
30.5	-2.500000	5.720847
34.5	-2.500000	95.9694
-28	-2.000000	38.4456
-24	-2.000000	0.000000
-20	-2.000000	3.139186
-16	-2.000000	119.26
-12	-2.000000	5.517029
-8.000000	-2.000000	5.009391
-4.000000	-2.000000	0.000000
0.000000	-2.000000	63.6269
4.000000	-2.000000	1.507573
8.000000	-2.000000	6.149019
12	-2.000000	52.3494
16	-2.000000	44.9355
20	-2.000000	45.6187
24	-2.000000	52.588
28	-2.000000	101.056
32	-2.000000	8.146891
36	-2.000000	70.748
-26.5	-1.500000	4.228079
-22.5	-1.500000	0.000000
-18.5	-1.500000	42.8568
-14.5	-1.500000	87.6718
-10.5	-1.500000	23.5571
-6.500000	-1.500000	0.000000
-2.500000	-1.500000	4.170715
1.500000	-1.500000	44.9793
5.500000	-1.500000	36.5408
9.500000	-1.500000	41.7608
13.5	-1.500000	76.8432
17.5	-1.500000	54.2451
21.5	-1.500000	39.5859
25.5	-1.500000	50.4488
29.5	-1.500000	70.187
33.5	-1.500000	2.990131
37.5	-1.500000	98.3709
-25	-1.000000	0.000000
-21	-1.000000	1.074447
-17	-1.000000	100.115
-13	-1.000000	21.2938
-9.000000	-1.000000	70.3243
-5.000000	-1.000000	2.115288
-1.000000	-1.000000	54.3987
3.000000	-1.000000	0.000000
7.000000	-1.000000	45.1703
11	-1.000000	73.4195
15	-1.000000	57.7213
19	-1.000000	46.9702
23	-1.000000	40.7247
27	-1.000000	69.0833
31	-1.000000	98.6866
35	-1.000000	95.6585
-27.5	-0.500000	19.208
-23.5	-0.500000	1.593713
-19.5	-0.500000	9.709731
-15.5	-0.500000	103.698
-11.5	-0.500000	73.5836
-7.500000	-0.500000	4.896415
-3.500000	-0.500000	2.224743
0.500000	-0.500000	24.2621
4.500000	-0.500000	7.373867
8.500000	-0.500000	37.4425
12.5	-0.500000	54.6019
16.5	-0.500000	43.5579
20.5	-0.500000	38.1181
24.5	-0.500000	44.7415
28.5	-0.500000	91.1432
32.5	-0.500000	1.725789
36.5	-0.500000	15.7544
-26	0.000000	48.3034
-22	0.000000	15.5814
-18	0.000000	93.7279
-14	0.000000	81.5649
-10	0.000000	84.9071
-6.000000	0.000000	1.536284
-2.000000	0.000000	41.2035
2.000000	0.000000	0.273463
6.000000	0.000000	72.254
10	0.000000	81.721
14	0.000000	55.8826
18	0.000000	56.2091
22	0.000000	42.8526
26	0.000000	53.8206
30	0.000000	72.5796
34	0.000000	2.440785
38	0.000000	69.8171
-24.5	0.500000	29.3643
-20.5	0.500000	5.038342
-16.5	0.500000	96.459
-12.5	0.500000	73.9582
-8.500000	0.500000	74.2097
-4.500000	0.500000	10.3238
-0.500000	0.500000	61.6533
3.500000	0.500000	34.7777
7.500000	0.500000	43.3488
11.5	0.500000	80.8575
15.5	0.500000	43.8257
19.5	0.500000	50.411
23.5	0.500000	45.8804
27.5	0.500000	80.097
31.5	0.500000	25.8016
35.5	0.500000	1.764782
-27	1.000000	75.3334
-23	1.000000	71.7808
-19	1.000000	58.3989
-15	1.000000	65.6851
-11	1.000000	90.8935
-7.000000	1.000000	5.060906
-3.000000	1.000000	69.6537
1.000000	1.000000	62.0045
5.000000	1.000000	83.944
9.000000	1.000000	97.0206
13	1.000000	67.1709
17	1.000000	47.3893
21	1.000000	51.0095
25	1.000000	51.0484
29	1.000000	67.0065
33	1.000000	0.000000
37	1.000000	2.445756
-25.5	1.500000	102.998
-21.5	1.500000	156.894
-17.5	1.500000	93.7238
-13.5	1.500000	78.02
-9.500000	1.500000	99.8597
-5.500000	1.500000	0.573380
-1.500000	1.500000	65.15
2.500000	1.500000	25.1864
6.500000	1.500000	73.8998
10.5	1.500000	112.467
14.5	1.500000	59.9262
18.5	1.500000	48.1127
22.5	1.500000	44.4265
26.5	1.500000	56.2339
30.5	1.500000	52.9838
34.5	1.500000	1.634016
-28	2.000000	85.2713
-24	2.000000	82.4423
-20	2.000000	18.0023
-16	2.000000	70.3158
-12	2.000000	79.0547
-8.000000	2.000000	57.5925
-4.000000	2.000000	28.3123
0.000000	2.000000	82.8417
4.000000	2.000000	78.095
8.000000	2.000000	37.3561
12	2.000000	75.5646
16	2.000000	59.2594
20	2.000000	52.9463
24	2.000000	42.2497
28	2.000000	96.0173
32	2.000000	12.878
36	2.000000	0.808425
-26.5	2.500000	78.7171
-22.5	2.500000	143.986
-18.5	2.500000	79.9159
-14.5	2.500000	91.9139
-10.5	2.500000	87.5686
-6.500000	2.500000	17.8
-2.500000	2.500000	41.665
1.500000	2.500000	76.7549
5.500000	2.500000	82.5026
9.500000	2.500000	64.7587
13.5	2.500000	68.7014
17.5	2.500000	50.2188
21.5	2.500000	46.1273
25.5	2.500000	49.8294
29.5	2.500000	89.9752
33.5	2.500000	0.385840
37.5	2.500000	6.440128
-25	3.000000	62.9502
-21	3.000000	55.8457
-17	3.000000	88.13
-13	3.000000	79.9848
-9.000000	3.000000	92.2838
-5.000000	3.000000	13.7794
-1.000000	3.000000	50.0125
3.000000	3.000000	63.3031
7.000000	3.000000	78.1
11	3.000000	75.9906
15	3.000000	69.8941
19	3.000000	53.9957
23	3.000000	52.9285
27	3.000000	67.9535
31	3.000000	61.6993
35	3.000000	1.458965
-27.5	3.500000	79.4125
-23.5	3.500000	98.7552
-19.5	3.500000	74.4354
-15.5	3.500000	86.6484
-11.5	3.500000	81.1669
-7.500000	3.500000	125.772
-3.500000	3.500000	94.5393
0.500000	3.500000	107.819
4.500000	3.500000	54.4545
8.500000	3.500000	41.6666
12.5	3.500000	79.8694
16.5	3.500000	46.1377
20.5	3.500000	44.2564
24.5	3.500000	47.7929
28.5	3.500000	93.8624
32.5	3.500000	0.958815
36.5	3.500000	94.9578
-26	4.000000	76.4179
-22	4.000000	21.8543
-18	4.000000	90.6815
-14	4.000000	70.1073
-10	4.000000	97.0141
-6.000000	4.000000	69.1869
-2.000000	4.000000	85.5853
2.000000	4.000000	36.9229
6.000000	4.000000	79.4202
10	4.000000	79.2719
14	4.000000	83.7576
18	4.000000	52.5879
22	4.000000	62.7381
26	4.000000	50.6463
30	4.000000	70.9516
34	4.000000	1.252879
38	4.000000	43.5854
-24.5	4.500000	11.3855
-20.5	4.500000	132.269
-16.5	4.500000	84.2109
-12.5	4.500000	73.8225
-8.500000	4.500000	81.6636
-4.500000	4.500000	63.8494
-0.500000	4.500000	90.9257
3.500000	4.500000	45.0711
7.500000	4.500000	76.6034
11.5	4.500000	61.2336
15.5	4.500000	63.6879
19.5	4.500000	44.4508
23.5	4.500000	49.7921
27.5	4.500000	50.083
31.5	4.500000	0.744391
35.5	4.500000	46.6146
-27	5.000000	79.8436
-23	5.000000	62.2387
-19	5.000000	56.9967
-15	5.000000	80.4156
-11	5.000000	95.2411
-7.000000	5.000000	79.2939
-3.000000	5.000000	49.0485
1.000000	5.000000	76.2854
5.000000	5.000000	58.4124
9.000000	5.000000	62.2484
13	5.000000	87.7288
17	5.000000	63.1805
21	5.000000	46.6143
25	5.000000	37.4291
29	5.000000	85.815
33	5.000000	5.687289
37	5.000000	71.806
-25.5	5.500000	27.2003
-21.5	5.500000	45.8943
-17.5	5.500000	72.4511
-13.5	5.500000	59.2162
-9.500000	5.500000	85.3543
-5.500000	5.500000	90.5226
-1.500000	5.500000	67.4373
2.500000	5.500000	57.5061
6.500000	5.500000	84.0897
10.5	5.500000	77.8985
14.5	5.500000	80.1389
18.5	5.500000	66.6816
22.5	5.500000	49.2102
26.5	5.500000	41.4208
30.5	5.500000	44.1301
34.5	5.500000	94.32
-28	6.000000	75.0505
-24	6.000000	10.0489
-20	6.000000	134.083
-16	6.000000	87.9386
-12	6.000000	59.1517
-8.000000	6.000000	103.096
-4.000000	6.000000	74.3131
0.000000	6.000000	91.4661
4.000000	6.000000	58.6062
8.000000	6.000000	83.4135
12	6.000000	74.806
16	6.000000	82.4213
20	6.000000	53.2587
24	6.000000	48.0365
28	6.000000	64.2945
32	6.000000	33.3349
36	6.000000	93.1665
-26.5	6.500000	19.0984
-22.5	6.500000	105.658
-18.5	6.500000	122.076
-14.5	6.500000	69.4574
-10.5	6.500000	71.4014
-6.500000	6.500000	76.6282
-2.500000	6.500000	76.079
1.500000	6.500000	73.1056
5.500000	6.500000	83.9247
9.500000	6.500000	87.2085
13.5	6.500000	80.8378
17.5	6.500000	90.1442
21.5	6.500000	47.7543
25.5	6.500000	56.0226
29.5	6.500000	60.6166
33.5	6.500000	102.717
37.5	6.500000	78.6539
-25	7.000000	2.051668
-21	7.000000	79.3381
-17	7.000000	109.348
-13	7.000000	62.3145
-9.000000	7.000000	73.4673
-5.000000	7.000000	88.9502
-1.000000	7.000000	103.349
3.000000	7.000000	57.5268
7.000000	7.000000	77.2197
11	7.000000	69.4125
15	7.000000	90.7517
19	7.000000	104.865
23	7.000000	44.8979
27	7.000000	48.5943
31	7.000000	73.456
35	7.000000	78.0947
-27.5	7.500000	5.466072
-23.5	7.500000	9.558466
-19.5	7.500000	138.253
-15.5	7.500000	108.383
-11.5	7.500000	57.7054
-7.500000	7.500000	73.3298
-3.500000	7.500000	80.1784
0.500000	7.500000	84.7879
4.500000	7.500000	66.9557
8.500000	7.500000	86.1386
12.5	7.500000	97.2887
16.5	7.500000	48.0745
20.5	7.500000	51.3563
24.5	7.500000	66.2635
28.5	7.500000	67.3976
32.5	7.500000	110.871
36.5	7.500000	67.4937
-26	8.000000	4.370281
-22	8.000000	91.942
-18	8.000000	112.987
-14	8.000000	83.9035
-10	8.000000	58.7975
-6.000000	8.000000	70.5459
-2.000000	8.000000	90.7542
2.000000	8.000000	73.9925
6.000000	8.000000	93.5503
10	8.000000	91.2661
14	8.000000	86.0488
18	8.000000	54.258
22	8.000000	39.5708
26	8.000000	73.7624
30	8.000000	59.8557
34	8.000000	103.902
38	8.000000	98.5853
-24.5	8.500000	1.207341
-20.5	8.500000	111.419
-16.5	8.500000	89.3379
-12.5	8.500000	63.1732
-8.500000	8.500000	73.3423
-4.500000	8.500000	68.0198
-0.500000	8.500000	84.1039
3.500000	8.500000	91.3381
7.500000	8.500000	84.1837
11.5	8.500000	78.2673
15.5	8.500000	62.6246
19.5	8.500000	51.7003
23.5	8.500000	66.4333
27.5	8.500000	50.5105
31.5	8.500000	95.6094
35.5	8.500000	118.243
-27	9.000000	1.263722
-23	9.000000	26.5438
-19	9.000000	82.2273
-15	9.000000	104.226
-11	9.000000	67.1583
-7.000000	9.000000	70.757
-3.000000	9.000000	80.9243
1.000000	9.000000	73.7109
5.000000	9.000000	42.6624
9.000000	9.000000	133.256
13	9.000000	99.7109
17	9.000000	58.7901
21	9.000000	53.3289
25	9.000000	77.0922
29	9.000000	49.9177
33	9.000000	103.81
37	9.000000	81.4347
-25.5	9.500000	2.524318
-21.5	9.500000	51.1519
-17.5	9.500000	57.7215
-13.5	9.500000	97.816
-9.500000	9.500000	64.4771
-5.500000	9.500000	72.5727
-1.500000	9.500000	12.5639
2.500000	9.500000	71.9157
6.500000	9.500000	103.626
10.5	9.500000	80.2689
14.5	9.500000	101.488
18.5	9.500000	70.3309
22.5	9.500000	43.8343
26.5	9.500000	58.9488
30.5	9.500000	72.6787
34.5	9.500000	123.209
-28	10	3.611977
-24	10	10.2201
-20	10	74.834
-16	10	45.3135
-12	10	85.9789
-8.000000	10	72.8341
-4.000000	10	83.1418
0.000000	10	113.214
4.000000	10	5.173182
8.000000	10	129.296
12	10	94.3476
16	10	80.967
20	10	76.9466
24	10	64.5798
28	10	51.8271
32	10	92.6341
36	10	98.1821
-26.5	10.5	3.838863
-22.5	10.5	101.02
-18.5	10.5	7.115297
-14.5	10.5	72.9969
-10.5	10.5	78.8069
-6.500000	10.5	59.3984
-2.500000	10.5	83.9372
1.500000	10.5	124.11
5.500000	10.5	2.866717
9.500000	10.5	83.7484
13.5	10.5	95.0573
17.5	10.5	56.2083
21.5	10.5	67.696
25.5	10.5	61.9287
29.5	10.5	64.7048
33.5	10.5	114.33
37.5	10.5	72.6755
-25	11	1.340956
-21	11	19.8966
-17	11	59.31
-13	11	100.405
-9.000000	11	77.2748
-5.000000	11	67.9042
-1.000000	11	75.6547
3.000000	11	19.7634
7.000000	11	60.4567
11	11	75.2191
15	11	96.6661
19	11	77.9243
23	11	66.1911
27	11	53.5724
31	11	75.8551
35	11	111.285
-27.5	11.5	26.2655
-23.5	11.5	8.264596
-19.5	11.5	5.092444
-15.5	11.5	9.128497
-11.5	11.5	86.1612
-7.500000	11.5	67.0957
-3.500000	11.5	89.2819
0.500000	11.5	130.164
4.500000	11.5	1.304318
8.500000	11.5	73.4316
12.5	11.5	78.5901
16.5	11.5	73.6743
20.5	11.5	113.492
24.5	11.5	67.2315
28.5	11.5	56.3176
32.5	11.5	118.292
36.5	11.5	93.9731
-26	12	4.105968
-22	12	52.686
-18	12	5.392842
-14	12	1.731115
-10	12	81.5553
-6.000000	12	74.4604
-2.000000	12	91.3613
2.000000	12	81.7925
6.000000	12	11.6739
10	12	82.2454
14	12	76.4896
18	12	75.7102
22	12	92.124
26	12	80.3091
30	12	55.0452
34	12	135.042
38	12	92.6603
-24.5	12.5	1.255180
-20.5	12.5	5.093443
-16.5	12.5	1.809162
-12.5	12.5	67.9441
-8.500000	12.5	86.9457
-4.500000	12.5	89.3316
-0.500000	12.5	85.7989
3.500000	12.5	2.919966
7.500000	12.5	60.8884
11.5	12.5	123.784
15.5	12.5	79.209
19.5	12.5	101.522
23.5	12.5	71.7052
27.5	12.5	78.1899
31.5	12.5	83.9219
35.5	12.5	135.323
-27	13	0.019734
-23	13	0.435102
-19	13	1.289831
-15	13	0.822712
-11	13	72.6992
-7.000000	13	88.5062
-3.000000	13	91.3139
1.000000	13	127.394
5.000000	13	1.346688
9.000000	13	96.0915
13	13	58.8827
17	13	67.4986
21	13	105.135
25	13	74.8605
29	13	60.999
33	13	107.465
37	13	99.5156
-25.5	13.5	2.634024
-21.5	13.5	1.908159
-17.5	13.5	14.6769
-13.5	13.5	2.418064
-9.500000	13.5	92.9234
-5.500000	13.5	69.7205
-1.500000	13.5	91.0231
2.500000	13.5	2.850527
6.500000	13.5	2.807198
10.5	13.5	138.061
14.5	13.5	64.7893
18.5	13.5	70.0092
22.5	13.5	73.0809
26.5	13.5	79.7593
30.5	13.5	64.981
34.5	13.5	98.089
-28	14	1.910031
-24	14	0.000000
-20	14	9.670405
-16	14	1.506668
-12	14	60.0586
-8.000000	14	83.4515
-4.000000	14	74.9219
0.000000	14	52.8456
4.000000	14	0.731863
8.000000	14	2.723129
12	14	77.5868
16	14	70.1696
20	14	150.865
24	14	68.2085
28	14	72.877
32	14	86.616
36	14	112.622
-26.5	14.5	0.848449
-22.5	14.5	5.842597
-18.5	14.5	1.449817
-14.5	14.5	1.623925
-10.5	14.5	35.8764
-6.500000	14.5	34.3677
-2.500000	14.5	89.6522
1.500000	14.5	4.957138
5.500000	14.5	0.000000
9.500000	14.5	13.528
13.5	14.5	45.4016
17.5	14.5	71.0875
21.5	14.5	107.768
25.5	14.5	70.5033
29.5	14.5	68.0032
33.5	14.5	112.903
37.5	14.5	78.5138
-25	15	14.7711
-21	15	0.000000
-17	15	5.551943
-13	15	2.055946
-9.000000	15	49.025
-5.000000	15	3.538557
-1.000000	15	51.1807
3.000000	15	2.146049
7.000000	15	0.022111
11	15	49.6698
15	15	71.6278
19	15	79.4176
23	15	95.494
27	15	62.0087
31	15	40.408
35	15	97.0524
-27.5	15.5	0.000000
-23.5	15.5	1.687173
-19.5	15.5	1.680093
-15.5	15.5	1.526240
-11.5	15.5	17.2663
-7.500000	15.5	2.475623
-3.500000	15.5	2.698500
0.500000	15.5	42.7516
4.500000	15.5	6.349026
8.500000	15.5	4.068345
12.5	15.5	119.816
16.5	15.5	66.7532
20.5	15.5	117.782
24.5	15.5	85.2987
28.5	15.5	70.4298
32.5	15.5	62.319
36.5	15.5	14.8771
-26	16	0.706300
-22	16	1.091397
-18	16	1.722000
-14	16	0.000000
-10	16	80.7606
-6.000000	16	0.011162
-2.000000	16	3.818384
2.000000	16	31.1601
6.000000	16	0.000000
10	16	76.1235
14	16	84.5698
18	16	80.6506
22	16	141.252
26	16	70.6033
30	16	63.7306
34	16	82.9232
38	16	3.914097
-24.5	16.5	1.015424
-20.5	16.5	2.898371
-16.5	16.5	0.050837
-12.5	16.5	12.0072
-8.500000	16.5	50.2944
-4.500000	16.5	1.736402
-0.500000	16.5	1.589120
3.500000	16.5	108.045
7.500000	16.5	0.950360
11.5	16.5	30.3123
15.5	16.5	69.2823
19.5	16.5	98.9472
23.5	16.5	105.278
27.5	16.5	73.1751
31.5	16.5	1.944250
35.5	16.5	33.7376
-27	17	3.166952
-23	17	1.747974
-19	17	0.995003
-15	17	0.000000
-11	17	96.7219
-7.000000	17	0.000000
-3.000000	17	1.591133
1.000000	17	36.2385
5.000000	17	23.7332
9.000000	17	18.4004
13	17	42.0038
17	17	84.2869
21	17	111.103
25	17	76.2036
29	17	45.3438
33	17	34.2851
37	17	1.942446
-25.5	17.5	1.243497
-21.5	17.5	0.611979
-17.5	17.5	0.000000
-13.5	17.5	8.194408
-9.500000	17.5	113.839
-5.500000	17.5	1.913579
-1.500000	17.5	0.000000
2.500000	17.5	86.334
6.500000	17.5	0.062161
10.5	17.5	42.8641
14.5	17.5	91.3846
18.5	17.5	84.0298
22.5	17.5	72.3515
26.5	17.5	7.261824
30.5	17.5	3.704390
34.5	17.5	38.6153
-28	18	1.233935
-24	18	0.000000
-20	18	4.781884
-16	18	1.792212
-12	18	50.7511
-8.000000	18	9.363045
-4.000000	18	1.577602
0.000000	18	8.288099
4.000000	18	57.5697
8.000000	18	2.185269
12	18	90.9722
16	18	84.2895
20	18	77.5363
24	18	69.2131
28	18	92.64
32	18	3.275622
36	18	2.277255
-26.5	18.5	20.9789
-22.5	18.5	0.318864
-18.5	18.5	1.220032
-14.5	18.5	13.3705
-10.5	18.5	118.292
-6.500000	18.5	3.066246
-2.500000	18.5	4.546356
1.500000	18.5	106.71
5.500000	18.5	1.482359
9.500000	18.5	8.186859
13.5	18.5	94.1972
17.5	18.5	81.2588
21.5	18.5	93.8298
25.5	18.5	63.5222
29.5	18.5	3.294626
33.5	18.5	19.6745
37.5	18.5	1.863160
-25	19	0.000000
-21	19	5.117931
-17	19	2.013572
-13	19	38.7329
-9.000000	19	61.0156
-5.000000	19	5.114306
-1.000000	19	3.747330
3.000000	19	144.542
7.000000	19	0.543149
11	19	81.5614
15	19	79.3876
19	19	91.7192
23	19	99.3707
27	19	4.250168
31	19	4.626269
35	19	6.107513
-27.5	19.5	67.3328
-23.5	19.5	0.000000
-19.5	19.5	1.678270
-15.5	19.5	2.186283
-11.5	19.5	34.7898
-7.500000	19.5	2.112627
-3.500000	19.5	44.964
0.500000	19.5	128.613
4.500000	19.5	8.627330
8.500000	19.5	0.529290
12.5	19.5	52.2358
16.5	19.5	85.1058
20.5	19.5	150.515
24.5	19.5	7.541863
28.5	19.5	1.841814
32.5	19.5	67.2659
36.5	19.5	3.275782
-26	20	4.337706
-22	20	15.1607
-18	20	1.895764
-14	20	10.0062
-10	20	101.926
-6.000000	20	33.8023
-2.000000	20	35.4091
2.000000	20	131.212
6.000000	20	5.513842
10	20	36.6085
14	20	66.3916
18	20	37.9475
22	20	125.209
26	20	0.000000
30	20	3.257235
34	20	84.4536
38	20	1.971184