File: data/derived_data/raman/20170920_Gr-NH2_for_Radisurf/20170920 Gr-NH for Radisurf map 1/2D pos.txt
#XList		#YList		#IList
-28	-22	2669.87
-24	-22	2689.81
-20	-22	2701.81
-16	-22	2693.75
-12	-22	2700.23
-8.000000	-22	2692.83
-4.000000	-22	2695.72
0.000000	-22	2692.88
4.000000	-22	2707.11
8.000000	-22	2694.62
12	-22	2690.74
16	-22	2690.3
20	-22	2693.53
24	-22	2702.79
28	-22	2750
32	-22	2712.8
36	-22	2722.87
-26.5	-21.5	2650
-22.5	-21.5	2692.25
-18.5	-21.5	2692.96
-14.5	-21.5	2697.57
-10.5	-21.5	2691.88
-6.500000	-21.5	2697.99
-2.500000	-21.5	2695.43
1.500000	-21.5	2704.01
5.500000	-21.5	2691.01
9.500000	-21.5	2690.67
13.5	-21.5	2692.35
17.5	-21.5	2701.03
21.5	-21.5	2694.92
25.5	-21.5	2704.93
29.5	-21.5	2714.49
33.5	-21.5	2650
37.5	-21.5	2650
-25	-21	2694.82
-21	-21	2687.4
-17	-21	2697.24
-13	-21	2702.45
-9.000000	-21	2686.64
-5.000000	-21	2694.71
-1.000000	-21	2695.26
3.000000	-21	2685.81
7.000000	-21	2684.29
11	-21	2689.7
15	-21	2693.83
19	-21	2696.34
23	-21	2696.05
27	-21	2691.62
31	-21	2713.16
35	-21	2650
-27.5	-20.5	2750
-23.5	-20.5	2681.21
-19.5	-20.5	2684.43
-15.5	-20.5	2692.16
-11.5	-20.5	2701.53
-7.500000	-20.5	2694.87
-3.500000	-20.5	2698.8
0.500000	-20.5	2710.02
4.500000	-20.5	2692.33
8.500000	-20.5	2690.61
12.5	-20.5	2686.07
16.5	-20.5	2692.77
20.5	-20.5	2696.49
24.5	-20.5	2696.41
28.5	-20.5	2709.9
32.5	-20.5	2703.19
36.5	-20.5	2650
-26	-20	2750
-22	-20	2691.39
-18	-20	2688.9
-14	-20	2696.98
-10	-20	2687.2
-6.000000	-20	2691.11
-2.000000	-20	2703.39
2.000000	-20	2650
6.000000	-20	2690.25
10	-20	2689.63
14	-20	2693.47
18	-20	2709.01
22	-20	2693.56
26	-20	2670.59
30	-20	2714.52
34	-20	2650
38	-20	2650
-24.5	-19.5	2685.73
-20.5	-19.5	2679.07
-16.5	-19.5	2699.66
-12.5	-19.5	2743.98
-8.500000	-19.5	2695.71
-4.500000	-19.5	2704.62
-0.500000	-19.5	2727.25
3.500000	-19.5	2706.72
7.500000	-19.5	2690.97
11.5	-19.5	2692.63
15.5	-19.5	2690.26
19.5	-19.5	2696.08
23.5	-19.5	2687.08
27.5	-19.5	2717.39
31.5	-19.5	2705.79
35.5	-19.5	2650
-27	-19	2650
-23	-19	2690.21
-19	-19	2690.41
-15	-19	2697.36
-11	-19	2667.57
-7.000000	-19	2706.91
-3.000000	-19	2696.2
1.000000	-19	2729.77
5.000000	-19	2694.85
9.000000	-19	2693.24
13	-19	2694.86
17	-19	2693.61
21	-19	2698.24
25	-19	2684.76
29	-19	2707.66
33	-19	2650
37	-19	2650
-25.5	-18.5	2650
-21.5	-18.5	2679.79
-17.5	-18.5	2695.56
-13.5	-18.5	2700.5
-9.500000	-18.5	2723.39
-5.500000	-18.5	2699.42
-1.500000	-18.5	2697.17
2.500000	-18.5	2705.82
6.500000	-18.5	2690.44
10.5	-18.5	2690.18
14.5	-18.5	2692.32
18.5	-18.5	2697.38
22.5	-18.5	2692.1
26.5	-18.5	2694.33
30.5	-18.5	2700.83
34.5	-18.5	2650
-28	-18	2700.42
-24	-18	2682.12
-20	-18	2720.77
-16	-18	2693.62
-12	-18	2650
-8.000000	-18	2723.05
-4.000000	-18	2694.33
0.000000	-18	2707.61
4.000000	-18	2700.8
8.000000	-18	2688.3
12	-18	2687.26
16	-18	2685.6
20	-18	2692.21
24	-18	2703.31
28	-18	2713.44
32	-18	2659.31
36	-18	2650
-26.5	-17.5	2710.82
-22.5	-17.5	2750
-18.5	-17.5	2711.5
-14.5	-17.5	2696.64
-10.5	-17.5	2658.19
-6.500000	-17.5	2650
-2.500000	-17.5	2702.69
1.500000	-17.5	2700.95
5.500000	-17.5	2686.67
9.500000	-17.5	2684.14
13.5	-17.5	2691.2
17.5	-17.5	2698.13
21.5	-17.5	2694.81
25.5	-17.5	2700.06
29.5	-17.5	2703.71
33.5	-17.5	2750
37.5	-17.5	2650
-25	-17	2650
-21	-17	2750
-17	-17	2709.15
-13	-17	2700.57
-9.000000	-17	2657.75
-5.000000	-17	2698.97
-1.000000	-17	2713.53
3.000000	-17	2707.26
7.000000	-17	2684.95
11	-17	2689.53
15	-17	2690.12
19	-17	2690.31
23	-17	2698.24
27	-17	2694.51
31	-17	2704.89
35	-17	2717.49
-27.5	-16.5	2708.58
-23.5	-16.5	2655.85
-19.5	-16.5	2696.27
-15.5	-16.5	2695.01
-11.5	-16.5	2701.39
-7.500000	-16.5	2712.47
-3.500000	-16.5	2696.04
0.500000	-16.5	2710.44
4.500000	-16.5	2692.52
8.500000	-16.5	2690.42
12.5	-16.5	2694.75
16.5	-16.5	2689.93
20.5	-16.5	2698.64
24.5	-16.5	2696.31
28.5	-16.5	2697.47
32.5	-16.5	2694.21
36.5	-16.5	2674.21
-26	-16	2713.75
-22	-16	2750
-18	-16	2697.83
-14	-16	2701.16
-10	-16	2699.55
-6.000000	-16	2685.66
-2.000000	-16	2709.18
2.000000	-16	2700.58
6.000000	-16	2693.65
10	-16	2684.7
14	-16	2693.31
18	-16	2692.6
22	-16	2694.84
26	-16	2695.47
30	-16	2709.04
34	-16	2750
38	-16	2713.92
-24.5	-15.5	2650
-20.5	-15.5	2750
-16.5	-15.5	2691.5
-12.5	-15.5	2693.99
-8.500000	-15.5	2690
-4.500000	-15.5	2684.27
-0.500000	-15.5	2713.33
3.500000	-15.5	2692.25
7.500000	-15.5	2686.91
11.5	-15.5	2685.8
15.5	-15.5	2688.84
19.5	-15.5	2700.81
23.5	-15.5	2706.23
27.5	-15.5	2709.62
31.5	-15.5	2705.66
35.5	-15.5	2701.49
-27	-15	2707.9
-23	-15	2650
-19	-15	2690.5
-15	-15	2691.06
-11	-15	2688.43
-7.000000	-15	2692.39
-3.000000	-15	2684.19
1.000000	-15	2703.02
5.000000	-15	2692.73
9.000000	-15	2688.57
13	-15	2694.41
17	-15	2693.4
21	-15	2692.22
25	-15	2694.46
29	-15	2712.7
33	-15	2709.95
37	-15	2704.42
-25.5	-14.5	2699.07
-21.5	-14.5	2721.65
-17.5	-14.5	2687.52
-13.5	-14.5	2692.82
-9.500000	-14.5	2693.03
-5.500000	-14.5	2681.2
-1.500000	-14.5	2699.29
2.500000	-14.5	2693.12
6.500000	-14.5	2698.52
10.5	-14.5	2696.37
14.5	-14.5	2692.93
18.5	-14.5	2693.86
22.5	-14.5	2732.48
26.5	-14.5	2707.47
30.5	-14.5	2710.1
34.5	-14.5	2714.58
-28	-14	2710.04
-24	-14	2650
-20	-14	2735.42
-16	-14	2687.66
-12	-14	2697.2
-8.000000	-14	2690.02
-4.000000	-14	2687.14
0.000000	-14	2702.74
4.000000	-14	2693.76
8.000000	-14	2686.68
12	-14	2691.41
16	-14	2690.1
20	-14	2687.69
24	-14	2694.17
28	-14	2709.86
32	-14	2688.68
36	-14	2704.32
-26.5	-13.5	2693.22
-22.5	-13.5	2650
-18.5	-13.5	2683.15
-14.5	-13.5	2697.02
-10.5	-13.5	2707.75
-6.500000	-13.5	2689.49
-2.500000	-13.5	2690.89
1.500000	-13.5	2691.77
5.500000	-13.5	2698.62
9.500000	-13.5	2699.97
13.5	-13.5	2694.51
17.5	-13.5	2685.75
21.5	-13.5	2696.81
25.5	-13.5	2711.08
29.5	-13.5	2712.32
33.5	-13.5	2708.64
37.5	-13.5	2709.59
-25	-13	2650
-21	-13	2704.33
-17	-13	2690.93
-13	-13	2693.2
-9.000000	-13	2688.76
-5.000000	-13	2687.91
-1.000000	-13	2692.9
3.000000	-13	2694.82
7.000000	-13	2698.39
11	-13	2684.41
15	-13	2694.25
19	-13	2696.87
23	-13	2700.46
27	-13	2704.98
31	-13	2716.33
35	-13	2712.09
-27.5	-12.5	2705.83
-23.5	-12.5	2666.62
-19.5	-12.5	2703.85
-15.5	-12.5	2687.63
-11.5	-12.5	2701.88
-7.500000	-12.5	2684.79
-3.500000	-12.5	2688.17
0.500000	-12.5	2696.9
4.500000	-12.5	2700.11
8.500000	-12.5	2696.98
12.5	-12.5	2715.67
16.5	-12.5	2688.93
20.5	-12.5	2698.82
24.5	-12.5	2692.34
28.5	-12.5	2705.29
32.5	-12.5	2715.08
36.5	-12.5	2709.65
-26	-12	2688.93
-22	-12	2650.68
-18	-12	2687.87
-14	-12	2689.86
-10	-12	2691.05
-6.000000	-12	2686.77
-2.000000	-12	2690.17
2.000000	-12	2694.3
6.000000	-12	2699.69
10	-12	2707.94
14	-12	2650.04
18	-12	2688.15
22	-12	2650
26	-12	2688.56
30	-12	2694.8
34	-12	2712.37
38	-12	2714.09
-24.5	-11.5	2650
-20.5	-11.5	2750
-16.5	-11.5	2687.65
-12.5	-11.5	2700.05
-8.500000	-11.5	2683.55
-4.500000	-11.5	2689.57
-0.500000	-11.5	2692.5
3.500000	-11.5	2690.75
7.500000	-11.5	2698.42
11.5	-11.5	2650
15.5	-11.5	2714.27
19.5	-11.5	2693.47
23.5	-11.5	2690.69
27.5	-11.5	2711.12
31.5	-11.5	2652.45
35.5	-11.5	2708.92
-27	-11	2650
-23	-11	2750
-19	-11	2689.78
-15	-11	2683.66
-11	-11	2697.08
-7.000000	-11	2692.15
-3.000000	-11	2686.68
1.000000	-11	2692.01
5.000000	-11	2699.05
9.000000	-11	2705.09
13	-11	2750
17	-11	2680.16
21	-11	2689.21
25	-11	2695.2
29	-11	2719.93
33	-11	2692.68
37	-11	2714.88
-25.5	-10.5	2722.26
-21.5	-10.5	2650
-17.5	-10.5	2679.6
-13.5	-10.5	2697.31
-9.500000	-10.5	2690.71
-5.500000	-10.5	2698.19
-1.500000	-10.5	2691.47
2.500000	-10.5	2696.83
6.500000	-10.5	2701.44
10.5	-10.5	2703.8
14.5	-10.5	2650
18.5	-10.5	2696.18
22.5	-10.5	2701.86
26.5	-10.5	2688.97
30.5	-10.5	2714.94
34.5	-10.5	2718.72
-28	-10	2687.76
-24	-10	2730.3
-20	-10	2696.15
-16	-10	2684.84
-12	-10	2701.32
-8.000000	-10	2694.18
-4.000000	-10	2689.62
0.000000	-10	2708.03
4.000000	-10	2699.48
8.000000	-10	2703.96
12	-10	2702.65
16	-10	2732.87
20	-10	2708.78
24	-10	2694.62
28	-10	2689.89
32	-10	2655.35
36	-10	2717.7
-26.5	-9.500000	2650
-22.5	-9.500000	2705.79
-18.5	-9.500000	2691.2
-14.5	-9.500000	2683.7
-10.5	-9.500000	2708.67
-6.500000	-9.500000	2695.54
-2.500000	-9.500000	2690.51
1.500000	-9.500000	2700.53
5.500000	-9.500000	2703.03
9.500000	-9.500000	2706.74
13.5	-9.500000	2686.85
17.5	-9.500000	2700.86
21.5	-9.500000	2695.01
25.5	-9.500000	2694.96
29.5	-9.500000	2705.55
33.5	-9.500000	2699.17
37.5	-9.500000	2711.96
-25	-9.000000	2655.5
-21	-9.000000	2696.6
-17	-9.000000	2684.25
-13	-9.000000	2698.39
-9.000000	-9.000000	2682.96
-5.000000	-9.000000	2696.51
-1.000000	-9.000000	2692.42
3.000000	-9.000000	2696.41
7.000000	-9.000000	2710.8
11	-9.000000	2704.99
15	-9.000000	2700.21
19	-9.000000	2707.06
23	-9.000000	2686.49
27	-9.000000	2710.15
31	-9.000000	2675.24
35	-9.000000	2704.64
-27.5	-8.500000	2727.48
-23.5	-8.500000	2691.61
-19.5	-8.500000	2705.38
-15.5	-8.500000	2673.55
-11.5	-8.500000	2695.88
-7.500000	-8.500000	2685.76
-3.500000	-8.500000	2695.18
0.500000	-8.500000	2694.86
4.500000	-8.500000	2705.85
8.500000	-8.500000	2704.09
12.5	-8.500000	2702.98
16.5	-8.500000	2705.29
20.5	-8.500000	2704.73
24.5	-8.500000	2694.54
28.5	-8.500000	2705.41
32.5	-8.500000	2693.67
36.5	-8.500000	2723.58
-26	-8.000000	2650
-22	-8.000000	2687.35
-18	-8.000000	2687.47
-14	-8.000000	2684.61
-10	-8.000000	2688.04
-6.000000	-8.000000	2696.76
-2.000000	-8.000000	2697.22
2.000000	-8.000000	2692.42
6.000000	-8.000000	2712.19
10	-8.000000	2704.52
14	-8.000000	2701.92
18	-8.000000	2695.42
22	-8.000000	2688.88
26	-8.000000	2694.78
30	-8.000000	2704.54
34	-8.000000	2695.51
38	-8.000000	2707.74
-24.5	-7.500000	2690.53
-20.5	-7.500000	2695.79
-16.5	-7.500000	2685.4
-12.5	-7.500000	2701.06
-8.500000	-7.500000	2690.06
-4.500000	-7.500000	2694.51
-0.500000	-7.500000	2693.28
3.500000	-7.500000	2704.86
7.500000	-7.500000	2711.89
11.5	-7.500000	2704.86
15.5	-7.500000	2702.02
19.5	-7.500000	2689.02
23.5	-7.500000	2697.29
27.5	-7.500000	2710.52
31.5	-7.500000	2706.6
35.5	-7.500000	2701.55
-27	-7.000000	2750
-23	-7.000000	2687.91
-19	-7.000000	2692.65
-15	-7.000000	2692.94
-11	-7.000000	2710.59
-7.000000	-7.000000	2694.54
-3.000000	-7.000000	2692.77
1.000000	-7.000000	2687.67
5.000000	-7.000000	2710.52
9.000000	-7.000000	2691.13
13	-7.000000	2710
17	-7.000000	2699.75
21	-7.000000	2692.27
25	-7.000000	2701.4
29	-7.000000	2713.12
33	-7.000000	2694.97
37	-7.000000	2695.94
-25.5	-6.500000	2650
-21.5	-6.500000	2694.92
-17.5	-6.500000	2691.11
-13.5	-6.500000	2685.09
-9.500000	-6.500000	2687.47
-5.500000	-6.500000	2685.82
-1.500000	-6.500000	2688.73
2.500000	-6.500000	2701.28
6.500000	-6.500000	2713.33
10.5	-6.500000	2690.74
14.5	-6.500000	2706.94
18.5	-6.500000	2691.75
22.5	-6.500000	2690.88
26.5	-6.500000	2714.6
30.5	-6.500000	2691.06
34.5	-6.500000	2702.79
-28	-6.000000	2710.07
-24	-6.000000	2694.18
-20	-6.000000	2689.11
-16	-6.000000	2691.46
-12	-6.000000	2693.59
-8.000000	-6.000000	2689
-4.000000	-6.000000	2693.6
0.000000	-6.000000	2695.01
4.000000	-6.000000	2695.51
8.000000	-6.000000	2692.63
12	-6.000000	2689.89
16	-6.000000	2696.27
20	-6.000000	2686.44
24	-6.000000	2675.84
28	-6.000000	2707.67
32	-6.000000	2703.19
36	-6.000000	2694.8
-26.5	-5.500000	2750
-22.5	-5.500000	2686.68
-18.5	-5.500000	2697.86
-14.5	-5.500000	2684.55
-10.5	-5.500000	2650
-6.500000	-5.500000	2673.57
-2.500000	-5.500000	2704.68
1.500000	-5.500000	2702.08
5.500000	-5.500000	2707.3
9.500000	-5.500000	2696.85
13.5	-5.500000	2698.36
17.5	-5.500000	2684.91
21.5	-5.500000	2693.51
25.5	-5.500000	2708.9
29.5	-5.500000	2711.72
33.5	-5.500000	2700.8
37.5	-5.500000	2698.09
-25	-5.000000	2666.55
-21	-5.000000	2693.18
-17	-5.000000	2695.53
-13	-5.000000	2718.86
-9.000000	-5.000000	2750
-5.000000	-5.000000	2717.06
-1.000000	-5.000000	2683.5
3.000000	-5.000000	2698.31
7.000000	-5.000000	2706.93
11	-5.000000	2692
15	-5.000000	2689.23
19	-5.000000	2679.86
23	-5.000000	2689.77
27	-5.000000	2705.17
31	-5.000000	2677.96
35	-5.000000	2689.02
-27.5	-4.500000	2707.47
-23.5	-4.500000	2692.83
-19.5	-4.500000	2695.3
-15.5	-4.500000	2700.57
-11.5	-4.500000	2650
-7.500000	-4.500000	2724.1
-3.500000	-4.500000	2661.74
0.500000	-4.500000	2695.27
4.500000	-4.500000	2694.04
8.500000	-4.500000	2701.1
12.5	-4.500000	2690.18
16.5	-4.500000	2687.35
20.5	-4.500000	2686.13
24.5	-4.500000	2690.4
28.5	-4.500000	2698.7
32.5	-4.500000	2696.02
36.5	-4.500000	2699.32
-26	-4.000000	2716.66
-22	-4.000000	2693.45
-18	-4.000000	2696.22
-14	-4.000000	2686.79
-10	-4.000000	2713.34
-6.000000	-4.000000	2715.24
-2.000000	-4.000000	2685.46
2.000000	-4.000000	2695.54
6.000000	-4.000000	2737.75
10	-4.000000	2709.41
14	-4.000000	2696.14
18	-4.000000	2693.99
22	-4.000000	2695.58
26	-4.000000	2702.18
30	-4.000000	2703.69
34	-4.000000	2700.17
38	-4.000000	2702.12
-24.5	-3.500000	2740.32
-20.5	-3.500000	2690.76
-16.5	-3.500000	2694.96
-12.5	-3.500000	2697.16
-8.500000	-3.500000	2650
-4.500000	-3.500000	2650.53
-0.500000	-3.500000	2692.85
3.500000	-3.500000	2697.2
7.500000	-3.500000	2677.53
11.5	-3.500000	2702.39
15.5	-3.500000	2698.04
19.5	-3.500000	2699.19
23.5	-3.500000	2687.56
27.5	-3.500000	2697.5
31.5	-3.500000	2650
35.5	-3.500000	2701.33
-27	-3.000000	2711.57
-23	-3.000000	2696.15
-19	-3.000000	2688.25
-15	-3.000000	2696.72
-11	-3.000000	2750
-7.000000	-3.000000	2650
-3.000000	-3.000000	2750
1.000000	-3.000000	2690.19
5.000000	-3.000000	2686.83
9.000000	-3.000000	2707.56
13	-3.000000	2695.69
17	-3.000000	2696.96
21	-3.000000	2694.12
25	-3.000000	2699.03
29	-3.000000	2694.11
33	-3.000000	2709.34
37	-3.000000	2699.53
-25.5	-2.500000	2733.84
-21.5	-2.500000	2702.68
-17.5	-2.500000	2695.54
-13.5	-2.500000	2706.55
-9.500000	-2.500000	2692.56
-5.500000	-2.500000	2650
-1.500000	-2.500000	2687.65
2.500000	-2.500000	2697.56
6.500000	-2.500000	2691.96
10.5	-2.500000	2690.25
14.5	-2.500000	2695.96
18.5	-2.500000	2695.42
22.5	-2.500000	2694.86
26.5	-2.500000	2699.45
30.5	-2.500000	2723.49
34.5	-2.500000	2695.61
-28	-2.000000	2702.89
-24	-2.000000	2650
-20	-2.000000	2750
-16	-2.000000	2700.57
-12	-2.000000	2698.28
-8.000000	-2.000000	2650
-4.000000	-2.000000	2711.2
0.000000	-2.000000	2695.21
4.000000	-2.000000	2750
8.000000	-2.000000	2720.42
12	-2.000000	2693.36
16	-2.000000	2697.38
20	-2.000000	2695.52
24	-2.000000	2691.58
28	-2.000000	2698.48
32	-2.000000	2678.97
36	-2.000000	2699.61
-26.5	-1.500000	2719.68
-22.5	-1.500000	2750
-18.5	-1.500000	2698.18
-14.5	-1.500000	2690.95
-10.5	-1.500000	2696.98
-6.500000	-1.500000	2729.29
-2.500000	-1.500000	2701.9
1.500000	-1.500000	2693.09
5.500000	-1.500000	2706.88
9.500000	-1.500000	2694.94
13.5	-1.500000	2669.96
17.5	-1.500000	2695.94
21.5	-1.500000	2695.72
25.5	-1.500000	2695.2
29.5	-1.500000	2695.52
33.5	-1.500000	2683.63
37.5	-1.500000	2695.93
-25	-1.000000	2650
-21	-1.000000	2650
-17	-1.000000	2698.82
-13	-1.000000	2705.53
-9.000000	-1.000000	2686.85
-5.000000	-1.000000	2650.04
-1.000000	-1.000000	2691.27
3.000000	-1.000000	2670.28
7.000000	-1.000000	2674.77
11	-1.000000	2693.61
15	-1.000000	2698.6
19	-1.000000	2699.9
23	-1.000000	2698.61
27	-1.000000	2696.93
31	-1.000000	2695.42
35	-1.000000	2700.39
-27.5	-0.500000	2704.35
-23.5	-0.500000	2750
-19.5	-0.500000	2700.83
-15.5	-0.500000	2700.85
-11.5	-0.500000	2689.48
-7.500000	-0.500000	2713.93
-3.500000	-0.500000	2671.07
0.500000	-0.500000	2704.18
4.500000	-0.500000	2716.83
8.500000	-0.500000	2697.48
12.5	-0.500000	2696.29
16.5	-0.500000	2690.41
20.5	-0.500000	2695.88
24.5	-0.500000	2688.95
28.5	-0.500000	2695.04
32.5	-0.500000	2675.56
36.5	-0.500000	2695.64
-26	0.000000	2708.47
-22	0.000000	2706.72
-18	0.000000	2694.23
-14	0.000000	2691.77
-10	0.000000	2693.63
-6.000000	0.000000	2650
-2.000000	0.000000	2683.97
2.000000	0.000000	2750
6.000000	0.000000	2703.19
10	0.000000	2687.66
14	0.000000	2696.58
18	0.000000	2695.23
22	0.000000	2697.71
26	0.000000	2694.2
30	0.000000	2689.5
34	0.000000	2703.96
38	0.000000	2693.05
-24.5	0.500000	2705.42
-20.5	0.500000	2725.24
-16.5	0.500000	2700.84
-12.5	0.500000	2688.44
-8.500000	0.500000	2688.61
-4.500000	0.500000	2650
-0.500000	0.500000	2691.54
3.500000	0.500000	2696.68
7.500000	0.500000	2699.9
11.5	0.500000	2694.47
15.5	0.500000	2692.48
19.5	0.500000	2699.3
23.5	0.500000	2700.83
27.5	0.500000	2693.47
31.5	0.500000	2699.47
35.5	0.500000	2704.71
-27	1.000000	2712.22
-23	1.000000	2697.85
-19	1.000000	2695.53
-15	1.000000	2696.96
-11	1.000000	2692.03
-7.000000	1.000000	2675.1
-3.000000	1.000000	2699.27
1.000000	1.000000	2686.64
5.000000	1.000000	2699.15
9.000000	1.000000	2692.37
13	1.000000	2700.32
17	1.000000	2684.17
21	1.000000	2698.41
25	1.000000	2692.84
29	1.000000	2689.7
33	1.000000	2722.73
37	1.000000	2680.12
-25.5	1.500000	2711.04
-21.5	1.500000	2707.13
-17.5	1.500000	2700
-13.5	1.500000	2688.71
-9.500000	1.500000	2695.5
-5.500000	1.500000	2687.77
-1.500000	1.500000	2707.4
2.500000	1.500000	2692.57
6.500000	1.500000	2703.28
10.5	1.500000	2692.18
14.5	1.500000	2693.43
18.5	1.500000	2692.39
22.5	1.500000	2694.98
26.5	1.500000	2696.79
30.5	1.500000	2692.58
34.5	1.500000	2750
-28	2.000000	2706.66
-24	2.000000	2710.81
-20	2.000000	2692.46
-16	2.000000	2695.66
-12	2.000000	2689.92
-8.000000	2.000000	2696.14
-4.000000	2.000000	2708.13
0.000000	2.000000	2703.87
4.000000	2.000000	2690.3
8.000000	2.000000	2711.46
12	2.000000	2692.59
16	2.000000	2686.55
20	2.000000	2698.76
24	2.000000	2697.08
28	2.000000	2695.94
32	2.000000	2748.67
36	2.000000	2667.74
-26.5	2.500000	2712.5
-22.5	2.500000	2709.77
-18.5	2.500000	2688.48
-14.5	2.500000	2696.32
-10.5	2.500000	2696.87
-6.500000	2.500000	2715.78
-2.500000	2.500000	2716.21
1.500000	2.500000	2694.31
5.500000	2.500000	2690.27
9.500000	2.500000	2699.76
13.5	2.500000	2694.2
17.5	2.500000	2694.96
21.5	2.500000	2699.49
25.5	2.500000	2693.41
29.5	2.500000	2695.34
33.5	2.500000	2650
37.5	2.500000	2683.75
-25	3.000000	2714.59
-21	3.000000	2701.68
-17	3.000000	2691.09
-13	3.000000	2690.07
-9.000000	3.000000	2704.38
-5.000000	3.000000	2702.67
-1.000000	3.000000	2714.29
3.000000	3.000000	2686.64
7.000000	3.000000	2702.29
11	3.000000	2690.83
15	3.000000	2693.16
19	3.000000	2686.53
23	3.000000	2689.67
27	3.000000	2686.92
31	3.000000	2694.2
35	3.000000	2750
-27.5	3.500000	2709.13
-23.5	3.500000	2709.98
-19.5	3.500000	2685.83
-15.5	3.500000	2695.36
-11.5	3.500000	2692.7
-7.500000	3.500000	2704.16
-3.500000	3.500000	2707.44
0.500000	3.500000	2697.57
4.500000	3.500000	2693.64
8.500000	3.500000	2709.03
12.5	3.500000	2687.52
16.5	3.500000	2692.16
20.5	3.500000	2691.68
24.5	3.500000	2694.18
28.5	3.500000	2698.11
32.5	3.500000	2675.85
36.5	3.500000	2691.39
-26	4.000000	2708.42
-22	4.000000	2700.12
-18	4.000000	2694.29
-14	4.000000	2695.62
-10	4.000000	2699.44
-6.000000	4.000000	2707.42
-2.000000	4.000000	2705.18
2.000000	4.000000	2698.8
6.000000	4.000000	2695.43
10	4.000000	2702.19
14	4.000000	2690.39
18	4.000000	2698.69
22	4.000000	2688.62
26	4.000000	2687.71
30	4.000000	2696.09
34	4.000000	2750
38	4.000000	2696.1
-24.5	4.500000	2711.84
-20.5	4.500000	2704.81
-16.5	4.500000	2697.75
-12.5	4.500000	2690.78
-8.500000	4.500000	2698.98
-4.500000	4.500000	2706.05
-0.500000	4.500000	2703.73
3.500000	4.500000	2697.17
7.500000	4.500000	2700.91
11.5	4.500000	2691.32
15.5	4.500000	2685.99
19.5	4.500000	2694.67
23.5	4.500000	2691.34
27.5	4.500000	2694.1
31.5	4.500000	2750
35.5	4.500000	2695.09
-27	5.000000	2693.44
-23	5.000000	2695.35
-19	5.000000	2696.12
-15	5.000000	2692.64
-11	5.000000	2692.24
-7.000000	5.000000	2707.58
-3.000000	5.000000	2709.4
1.000000	5.000000	2690.85
5.000000	5.000000	2700.88
9.000000	5.000000	2706.08
13	5.000000	2688.42
17	5.000000	2683.82
21	5.000000	2698.8
25	5.000000	2698.64
29	5.000000	2699.54
33	5.000000	2711.95
37	5.000000	2690.51
-25.5	5.500000	2690.82
-21.5	5.500000	2701.73
-17.5	5.500000	2699.96
-13.5	5.500000	2695.55
-9.500000	5.500000	2692.8
-5.500000	5.500000	2710.18
-1.500000	5.500000	2705.86
2.500000	5.500000	2692.01
6.500000	5.500000	2701.68
10.5	5.500000	2704.84
14.5	5.500000	2688.92
18.5	5.500000	2691.62
22.5	5.500000	2700.64
26.5	5.500000	2698.28
30.5	5.500000	2695.55
34.5	5.500000	2694.88
-28	6.000000	2697.82
-24	6.000000	2712.05
-20	6.000000	2702.45
-16	6.000000	2691.1
-12	6.000000	2695.91
-8.000000	6.000000	2695.39
-4.000000	6.000000	2708.53
0.000000	6.000000	2705.29
4.000000	6.000000	2690.58
8.000000	6.000000	2708.47
12	6.000000	2704.32
16	6.000000	2693.31
20	6.000000	2696.74
24	6.000000	2702.23
28	6.000000	2691.9
32	6.000000	2710.73
36	6.000000	2702.87
-26.5	6.500000	2705.17
-22.5	6.500000	2694.33
-18.5	6.500000	2705.11
-14.5	6.500000	2692.98
-10.5	6.500000	2693.54
-6.500000	6.500000	2697.22
-2.500000	6.500000	2707.8
1.500000	6.500000	2696.67
5.500000	6.500000	2696.27
9.500000	6.500000	2710.69
13.5	6.500000	2695.06
17.5	6.500000	2696.22
21.5	6.500000	2698.48
25.5	6.500000	2698.43
29.5	6.500000	2695.54
33.5	6.500000	2706.84
37.5	6.500000	2696.48
-25	7.000000	2650
-21	7.000000	2702.97
-17	7.000000	2704.96
-13	7.000000	2699.78
-9.000000	7.000000	2696.8
-5.000000	7.000000	2702.43
-1.000000	7.000000	2705.94
3.000000	7.000000	2695.14
7.000000	7.000000	2704.99
11	7.000000	2709.84
15	7.000000	2700.56
19	7.000000	2696
23	7.000000	2702.91
27	7.000000	2699.23
31	7.000000	2694.67
35	7.000000	2703.17
-27.5	7.500000	2701.83
-23.5	7.500000	2721.43
-19.5	7.500000	2706.74
-15.5	7.500000	2699.68
-11.5	7.500000	2693.25
-7.500000	7.500000	2694.47
-3.500000	7.500000	2706.5
0.500000	7.500000	2697.17
4.500000	7.500000	2691.32
8.500000	7.500000	2709.22
12.5	7.500000	2688.81
16.5	7.500000	2682.36
20.5	7.500000	2696.53
24.5	7.500000	2708.3
28.5	7.500000	2681.46
32.5	7.500000	2709.1
36.5	7.500000	2701.27
-26	8.000000	2667.21
-22	8.000000	2692.26
-18	8.000000	2704.67
-14	8.000000	2683.11
-10	8.000000	2693.94
-6.000000	8.000000	2691.29
-2.000000	8.000000	2702.23
2.000000	8.000000	2685.98
6.000000	8.000000	2701.54
10	8.000000	2712.81
14	8.000000	2690.11
18	8.000000	2692.99
22	8.000000	2700.7
26	8.000000	2703.32
30	8.000000	2698.05
34	8.000000	2705.23
38	8.000000	2692
-24.5	8.500000	2650
-20.5	8.500000	2697.18
-16.5	8.500000	2697.24
-12.5	8.500000	2690.1
-8.500000	8.500000	2697.05
-4.500000	8.500000	2692.26
-0.500000	8.500000	2692.13
3.500000	8.500000	2705.77
7.500000	8.500000	2707.64
11.5	8.500000	2690.33
15.5	8.500000	2697.74
19.5	8.500000	2693.95
23.5	8.500000	2707.22
27.5	8.500000	2693.6
31.5	8.500000	2700.96
35.5	8.500000	2697.71
-27	9.000000	2651.45
-23	9.000000	2715.07
-19	9.000000	2699.91
-15	9.000000	2685.75
-11	9.000000	2689.29
-7.000000	9.000000	2690.61
-3.000000	9.000000	2692.76
1.000000	9.000000	2695.22
5.000000	9.000000	2694.74
9.000000	9.000000	2702.54
13	9.000000	2689.04
17	9.000000	2687.13
21	9.000000	2694.63
25	9.000000	2707.73
29	9.000000	2692.58
33	9.000000	2705.94
37	9.000000	2689.31
-25.5	9.500000	2675.8
-21.5	9.500000	2705.16
-17.5	9.500000	2697.01
-13.5	9.500000	2693.99
-9.500000	9.500000	2691.73
-5.500000	9.500000	2690.05
-1.500000	9.500000	2714.15
2.500000	9.500000	2695.13
6.500000	9.500000	2699.96
10.5	9.500000	2696.47
14.5	9.500000	2695.1
18.5	9.500000	2682.87
22.5	9.500000	2696.12
26.5	9.500000	2700.34
30.5	9.500000	2694.95
34.5	9.500000	2694.37
-28	10	2732.72
-24	10	2708.44
-20	10	2697.01
-16	10	2694.5
-12	10	2689.33
-8.000000	10	2694.37
-4.000000	10	2699.96
0.000000	10	2699.35
4.000000	10	2701.24
8.000000	10	2698.86
12	10	2700.28
16	10	2693.25
20	10	2696.07
24	10	2702.61
28	10	2695.33
32	10	2698.07
36	10	2692.09
-26.5	10.5	2671.51
-22.5	10.5	2698.39
-18.5	10.5	2748.44
-14.5	10.5	2688.34
-10.5	10.5	2694.47
-6.500000	10.5	2693.47
-2.500000	10.5	2687.3
1.500000	10.5	2696.02
5.500000	10.5	2677.77
9.500000	10.5	2704.85
13.5	10.5	2690.61
17.5	10.5	2690.47
21.5	10.5	2690.83
25.5	10.5	2698.65
29.5	10.5	2692.94
33.5	10.5	2695.01
37.5	10.5	2690.44
-25	11	2650
-21	11	2702.67
-17	11	2691.82
-13	11	2692.1
-9.000000	11	2697.27
-5.000000	11	2689.62
-1.000000	11	2687.77
3.000000	11	2680.35
7.000000	11	2700.32
11	11	2704.65
15	11	2694.51
19	11	2696.39
23	11	2693.05
27	11	2689.84
31	11	2692.18
35	11	2699.52
-27.5	11.5	2700.08
-23.5	11.5	2697.75
-19.5	11.5	2724.48
-15.5	11.5	2701.25
-11.5	11.5	2690.4
-7.500000	11.5	2690.06
-3.500000	11.5	2688.05
0.500000	11.5	2698.85
4.500000	11.5	2650
8.500000	11.5	2697.15
12.5	11.5	2692.37
16.5	11.5	2686.68
20.5	11.5	2700.66
24.5	11.5	2698.07
28.5	11.5	2693.4
32.5	11.5	2695.73
36.5	11.5	2692.21
-26	12	2688.92
-22	12	2693.09
-18	12	2685.35
-14	12	2650
-10	12	2697.13
-6.000000	12	2698.98
-2.000000	12	2689.1
2.000000	12	2698.84
6.000000	12	2722.2
10	12	2709.38
14	12	2688.36
18	12	2698.74
22	12	2699.52
26	12	2691.43
30	12	2681.6
34	12	2700.51
38	12	2689.87
-24.5	12.5	2650
-20.5	12.5	2674.77
-16.5	12.5	2650
-12.5	12.5	2691.88
-8.500000	12.5	2695.02
-4.500000	12.5	2692.75
-0.500000	12.5	2694
3.500000	12.5	2650
7.500000	12.5	2682.42
11.5	12.5	2705.2
15.5	12.5	2690.1
19.5	12.5	2697.9
23.5	12.5	2692
27.5	12.5	2690.6
31.5	12.5	2692.22
35.5	12.5	2700.49
-27	13	2750
-23	13	2650
-19	13	2650
-15	13	2650
-11	13	2691.35
-7.000000	13	2695.96
-3.000000	13	2694.64
1.000000	13	2696.34
5.000000	13	2650
9.000000	13	2701.23
13	13	2686.13
17	13	2690.74
21	13	2696.69
25	13	2697.83
29	13	2688.95
33	13	2700.21
37	13	2687.91
-25.5	13.5	2685.45
-21.5	13.5	2737.69
-17.5	13.5	2650.02
-13.5	13.5	2650
-9.500000	13.5	2694.51
-5.500000	13.5	2689.84
-1.500000	13.5	2701.97
2.500000	13.5	2691.35
6.500000	13.5	2650
10.5	13.5	2711.07
14.5	13.5	2687.35
18.5	13.5	2696.26
22.5	13.5	2688.6
26.5	13.5	2691.13
30.5	13.5	2683.94
34.5	13.5	2707.74
-28	14	2650
-24	14	2710.71
-20	14	2711.26
-16	14	2650
-12	14	2687.76
-8.000000	14	2693.59
-4.000000	14	2685.55
0.000000	14	2693.8
4.000000	14	2750
8.000000	14	2691.5
12	14	2699.2
16	14	2685.84
20	14	2698.99
24	14	2694.68
28	14	2692.23
32	14	2690.76
36	14	2698.68
-26.5	14.5	2750
-22.5	14.5	2700.69
-18.5	14.5	2650
-14.5	14.5	2658.35
-10.5	14.5	2703.99
-6.500000	14.5	2700.05
-2.500000	14.5	2696.06
1.500000	14.5	2703.69
5.500000	14.5	2687.41
9.500000	14.5	2700.6
13.5	14.5	2704.71
17.5	14.5	2685.87
21.5	14.5	2689.41
25.5	14.5	2690.02
29.5	14.5	2691.59
33.5	14.5	2701.42
37.5	14.5	2689.31
-25	15	2670.65
-21	15	2650
-17	15	2697.65
-13	15	2650
-9.000000	15	2695.49
-5.000000	15	2699.21
-1.000000	15	2687.45
3.000000	15	2750
7.000000	15	2650
11	15	2701.6
15	15	2686.88
19	15	2694.5
23	15	2693.57
27	15	2689.85
31	15	2696.04
35	15	2699.23
-27.5	15.5	2664.2
-23.5	15.5	2650
-19.5	15.5	2650
-15.5	15.5	2650
-11.5	15.5	2697.52
-7.500000	15.5	2729.01
-3.500000	15.5	2650
0.500000	15.5	2701.99
4.500000	15.5	2728.77
8.500000	15.5	2692.85
12.5	15.5	2703.55
16.5	15.5	2685.04
20.5	15.5	2697.91
24.5	15.5	2693.02
28.5	15.5	2689.34
32.5	15.5	2692.79
36.5	15.5	2701.35
-26	16	2650
-22	16	2650
-18	16	2750
-14	16	2750
-10	16	2691.07
-6.000000	16	2650
-2.000000	16	2708.06
2.000000	16	2703.98
6.000000	16	2650.36
10	16	2692.11
14	16	2704.34
18	16	2687.49
22	16	2698.36
26	16	2686.89
30	16	2688.4
34	16	2686.67
38	16	2692.52
-24.5	16.5	2650
-20.5	16.5	2650
-16.5	16.5	2650.66
-12.5	16.5	2709.51
-8.500000	16.5	2691.31
-4.500000	16.5	2650
-0.500000	16.5	2650
3.500000	16.5	2695.38
7.500000	16.5	2650
11.5	16.5	2706.9
15.5	16.5	2692.69
19.5	16.5	2702.28
23.5	16.5	2694.34
27.5	16.5	2688.78
31.5	16.5	2650
35.5	16.5	2690.46
-27	17	2650
-23	17	2750
-19	17	2650
-15	17	2650
-11	17	2692.18
-7.000000	17	2687.33
-3.000000	17	2729.85
1.000000	17	2698.75
5.000000	17	2691.96
9.000000	17	2689.25
13	17	2702.46
17	17	2688.57
21	17	2699.87
25	17	2694.75
29	17	2691
33	17	2687.19
37	17	2750
-25.5	17.5	2650
-21.5	17.5	2650
-17.5	17.5	2667.19
-13.5	17.5	2705.6
-9.500000	17.5	2699.88
-5.500000	17.5	2650
-1.500000	17.5	2650
2.500000	17.5	2700.3
6.500000	17.5	2750
10.5	17.5	2704.22
14.5	17.5	2706.44
18.5	17.5	2702.74
22.5	17.5	2694.14
26.5	17.5	2727.42
30.5	17.5	2709.72
34.5	17.5	2687.4
-28	18	2650
-24	18	2650
-20	18	2749.93
-16	18	2650
-12	18	2687.65
-8.000000	18	2684.26
-4.000000	18	2650
0.000000	18	2707.77
4.000000	18	2702.37
8.000000	18	2690.68
12	18	2693.49
16	18	2705.44
20	18	2705.83
24	18	2686.57
28	18	2703.41
32	18	2741.11
36	18	2724.85
-26.5	18.5	2711.15
-22.5	18.5	2650
-18.5	18.5	2650
-14.5	18.5	2700.48
-10.5	18.5	2704.6
-6.500000	18.5	2730.59
-2.500000	18.5	2696.9
1.500000	18.5	2709.94
5.500000	18.5	2700.4
9.500000	18.5	2716.72
13.5	18.5	2698.52
17.5	18.5	2692.81
21.5	18.5	2696.69
25.5	18.5	2700.19
29.5	18.5	2719.81
33.5	18.5	2709.36
37.5	18.5	2675.57
-25	19	2750
-21	19	2674.34
-17	19	2650
-13	19	2701.45
-9.000000	19	2702.17
-5.000000	19	2701.08
-1.000000	19	2714.55
3.000000	19	2711.12
7.000000	19	2650
11	19	2697.76
15	19	2703.29
19	19	2702.98
23	19	2693.22
27	19	2650
31	19	2719.21
35	19	2697.04
-27.5	19.5	2708.01
-23.5	19.5	2708.96
-19.5	19.5	2650
-15.5	19.5	2650
-11.5	19.5	2711.63
-7.500000	19.5	2683.62
-3.500000	19.5	2695.37
0.500000	19.5	2704.56
4.500000	19.5	2704.52
8.500000	19.5	2650
12.5	19.5	2687.5
16.5	19.5	2698.7
20.5	19.5	2707.14
24.5	19.5	2697.56
28.5	19.5	2650
32.5	19.5	2694.03
36.5	19.5	2650
-26	20	2704.72
-22	20	2691.22
-18	20	2697.99
-14	20	2701.37
-10	20	2708.22
-6.000000	20	2699.26
-2.000000	20	2692.41
2.000000	20	2711.67
6.000000	20	2705.51
10	20	2697.82
14	20	2696.38
18	20	2691.01
22	20	2695.64
26	20	2736.43
30	20	2744.49
34	20	2688.03
38	20	2650