File: data/derived_data/raman/20170920_Gr-NH2_for_Radisurf/20170920 Gr-NH for Radisurf map 1/2Dp pos.txt
#XList		#YList		#IList
-28	-22	3131.74
-24	-22	3128.14
-20	-22	3159.93
-16	-22	3181.46
-12	-22	3179.67
-8.000000	-22	3141.6
-4.000000	-22	3161.63
0.000000	-22	3168.28
4.000000	-22	3139.74
8.000000	-22	3165.64
12	-22	3128.32
16	-22	3179.38
20	-22	3138.81
24	-22	3100
28	-22	3287.93
32	-22	3188.79
36	-22	3350
-26.5	-21.5	3350
-22.5	-21.5	3160.75
-18.5	-21.5	3147.68
-14.5	-21.5	3173.64
-10.5	-21.5	3149.53
-6.500000	-21.5	3153.78
-2.500000	-21.5	3172.88
1.500000	-21.5	3188.43
5.500000	-21.5	3156.38
9.500000	-21.5	3145.26
13.5	-21.5	3146.19
17.5	-21.5	3146.33
21.5	-21.5	3124.66
25.5	-21.5	3167.13
29.5	-21.5	3160.7
33.5	-21.5	3242.32
37.5	-21.5	3350
-25	-21	3133.73
-21	-21	3119.52
-17	-21	3149.07
-13	-21	3204.09
-9.000000	-21	3155.16
-5.000000	-21	3149.24
-1.000000	-21	3177.73
3.000000	-21	3100
7.000000	-21	3166.43
11	-21	3144.26
15	-21	3168.03
19	-21	3167.59
23	-21	3153.96
27	-21	3180.55
31	-21	3243.4
35	-21	3350
-27.5	-20.5	3350
-23.5	-20.5	3190.02
-19.5	-20.5	3161.9
-15.5	-20.5	3137.11
-11.5	-20.5	3237.4
-7.500000	-20.5	3132.03
-3.500000	-20.5	3149.32
0.500000	-20.5	3350
4.500000	-20.5	3168.37
8.500000	-20.5	3168.37
12.5	-20.5	3145.48
16.5	-20.5	3144.32
20.5	-20.5	3178.5
24.5	-20.5	3176.46
28.5	-20.5	3184.57
32.5	-20.5	3350
36.5	-20.5	3273.21
-26	-20	3102.95
-22	-20	3154.53
-18	-20	3150.95
-14	-20	3151.58
-10	-20	3188.49
-6.000000	-20	3119.6
-2.000000	-20	3171.93
2.000000	-20	3326.02
6.000000	-20	3159.02
10	-20	3166
14	-20	3180.03
18	-20	3272.41
22	-20	3149.28
26	-20	3308.19
30	-20	3193.26
34	-20	3223.35
38	-20	3350
-24.5	-19.5	3115.49
-20.5	-19.5	3154.67
-16.5	-19.5	3169.49
-12.5	-19.5	3100
-8.500000	-19.5	3145.68
-4.500000	-19.5	3137.8
-0.500000	-19.5	3100
3.500000	-19.5	3149.76
7.500000	-19.5	3145.83
11.5	-19.5	3153.46
15.5	-19.5	3136.58
19.5	-19.5	3164.3
23.5	-19.5	3143.02
27.5	-19.5	3171.77
31.5	-19.5	3191.9
35.5	-19.5	3350
-27	-19	3343.08
-23	-19	3102.81
-19	-19	3154.53
-15	-19	3194.36
-11	-19	3237.93
-7.000000	-19	3148.65
-3.000000	-19	3176.15
1.000000	-19	3100
5.000000	-19	3148.55
9.000000	-19	3160.15
13	-19	3181.69
17	-19	3167.88
21	-19	3165.66
25	-19	3132.29
29	-19	3181.96
33	-19	3350
37	-19	3350
-25.5	-18.5	3350
-21.5	-18.5	3173.88
-17.5	-18.5	3115.61
-13.5	-18.5	3166.34
-9.500000	-18.5	3330.5
-5.500000	-18.5	3121.98
-1.500000	-18.5	3153.53
2.500000	-18.5	3193.99
6.500000	-18.5	3173.36
10.5	-18.5	3151.91
14.5	-18.5	3163.67
18.5	-18.5	3162.93
22.5	-18.5	3140.95
26.5	-18.5	3124.06
30.5	-18.5	3159.06
34.5	-18.5	3350
-28	-18	3350
-24	-18	3100
-20	-18	3100
-16	-18	3100
-12	-18	3233.83
-8.000000	-18	3272.04
-4.000000	-18	3159.81
0.000000	-18	3181.68
4.000000	-18	3168.69
8.000000	-18	3149.65
12	-18	3164.26
16	-18	3159.19
20	-18	3160.6
24	-18	3168.68
28	-18	3185.26
32	-18	3325.63
36	-18	3350
-26.5	-17.5	3100
-22.5	-17.5	3100
-18.5	-17.5	3237.96
-14.5	-17.5	3192.39
-10.5	-17.5	3350
-6.500000	-17.5	3305.75
-2.500000	-17.5	3178.94
1.500000	-17.5	3160.51
5.500000	-17.5	3120.91
9.500000	-17.5	3165.88
13.5	-17.5	3153.4
17.5	-17.5	3155.31
21.5	-17.5	3140.55
25.5	-17.5	3180.49
29.5	-17.5	3177.77
33.5	-17.5	3350
37.5	-17.5	3350
-25	-17	3333.4
-21	-17	3350
-17	-17	3164.12
-13	-17	3203.79
-9.000000	-17	3350
-5.000000	-17	3185.28
-1.000000	-17	3156.86
3.000000	-17	3233.51
7.000000	-17	3167.6
11	-17	3175.29
15	-17	3140.56
19	-17	3166.66
23	-17	3138.95
27	-17	3141.36
31	-17	3190.81
35	-17	3350
-27.5	-16.5	3187.16
-23.5	-16.5	3100
-19.5	-16.5	3147.32
-15.5	-16.5	3185.6
-11.5	-16.5	3174.29
-7.500000	-16.5	3185.05
-3.500000	-16.5	3126.59
0.500000	-16.5	3161.73
4.500000	-16.5	3145.91
8.500000	-16.5	3152.65
12.5	-16.5	3151.64
16.5	-16.5	3141.83
20.5	-16.5	3166.93
24.5	-16.5	3162.49
28.5	-16.5	3181.03
32.5	-16.5	3350
36.5	-16.5	3350
-26	-16	3350
-22	-16	3180.99
-18	-16	3136.13
-14	-16	3182.07
-10	-16	3169.85
-6.000000	-16	3147.42
-2.000000	-16	3166.69
2.000000	-16	3172.82
6.000000	-16	3168.4
10	-16	3194.04
14	-16	3165.71
18	-16	3153.62
22	-16	3183.86
26	-16	3132.85
30	-16	3175.19
34	-16	3198.79
38	-16	3350
-24.5	-15.5	3350
-20.5	-15.5	3350
-16.5	-15.5	3146.08
-12.5	-15.5	3167.52
-8.500000	-15.5	3141.56
-4.500000	-15.5	3186.44
-0.500000	-15.5	3237.19
3.500000	-15.5	3156.44
7.500000	-15.5	3163.45
11.5	-15.5	3175.17
15.5	-15.5	3152.69
19.5	-15.5	3216.39
23.5	-15.5	3350
27.5	-15.5	3204.4
31.5	-15.5	3157.42
35.5	-15.5	3171.19
-27	-15	3164.54
-23	-15	3350
-19	-15	3153.73
-15	-15	3146.35
-11	-15	3143.29
-7.000000	-15	3155.97
-3.000000	-15	3173.96
1.000000	-15	3205.06
5.000000	-15	3156.18
9.000000	-15	3161.68
13	-15	3169.06
17	-15	3151.5
21	-15	3171.4
25	-15	3157.85
29	-15	3213.84
33	-15	3336.98
37	-15	3183.23
-25.5	-14.5	3350
-21.5	-14.5	3350
-17.5	-14.5	3145.83
-13.5	-14.5	3156.93
-9.500000	-14.5	3145.52
-5.500000	-14.5	3154.67
-1.500000	-14.5	3165.15
2.500000	-14.5	3158.17
6.500000	-14.5	3155.14
10.5	-14.5	3171.81
14.5	-14.5	3141.92
18.5	-14.5	3182.76
22.5	-14.5	3209.03
26.5	-14.5	3236.97
30.5	-14.5	3233.79
34.5	-14.5	3243.78
-28	-14	3350
-24	-14	3100
-20	-14	3153.86
-16	-14	3139.55
-12	-14	3142.24
-8.000000	-14	3171.77
-4.000000	-14	3147.2
0.000000	-14	3196.92
4.000000	-14	3178.5
8.000000	-14	3158.89
12	-14	3153.45
16	-14	3173.45
20	-14	3177.84
24	-14	3151.62
28	-14	3197.99
32	-14	3144.43
36	-14	3171.8
-26.5	-13.5	3350
-22.5	-13.5	3350
-18.5	-13.5	3200.21
-14.5	-13.5	3156
-10.5	-13.5	3188.51
-6.500000	-13.5	3141.7
-2.500000	-13.5	3144.97
1.500000	-13.5	3159.37
5.500000	-13.5	3170.12
9.500000	-13.5	3174.38
13.5	-13.5	3131.76
17.5	-13.5	3143.65
21.5	-13.5	3350
25.5	-13.5	3146.42
29.5	-13.5	3206.31
33.5	-13.5	3217.51
37.5	-13.5	3239.39
-25	-13	3243.78
-21	-13	3229.22
-17	-13	3171.91
-13	-13	3141.32
-9.000000	-13	3156.98
-5.000000	-13	3154.54
-1.000000	-13	3185.42
3.000000	-13	3186.73
7.000000	-13	3162.8
11	-13	3160.45
15	-13	3171.25
19	-13	3164.14
23	-13	3186.1
27	-13	3180.08
31	-13	3162.22
35	-13	3235.99
-27.5	-12.5	3116.9
-23.5	-12.5	3100
-19.5	-12.5	3228.38
-15.5	-12.5	3104.24
-11.5	-12.5	3169.53
-7.500000	-12.5	3162.85
-3.500000	-12.5	3145.88
0.500000	-12.5	3186.63
4.500000	-12.5	3156.63
8.500000	-12.5	3138.94
12.5	-12.5	3200.4
16.5	-12.5	3100
20.5	-12.5	3162.91
24.5	-12.5	3133.22
28.5	-12.5	3211.26
32.5	-12.5	3113.29
36.5	-12.5	3218.4
-26	-12	3168.41
-22	-12	3100
-18	-12	3151.95
-14	-12	3144.47
-10	-12	3139.68
-6.000000	-12	3162.98
-2.000000	-12	3146.15
2.000000	-12	3164.79
6.000000	-12	3157.27
10	-12	3176.3
14	-12	3164.28
18	-12	3204.95
22	-12	3350
26	-12	3178.01
30	-12	3154.66
34	-12	3225.25
38	-12	3234.25
-24.5	-11.5	3350
-20.5	-11.5	3100
-16.5	-11.5	3169.11
-12.5	-11.5	3125.83
-8.500000	-11.5	3167.68
-4.500000	-11.5	3141.52
-0.500000	-11.5	3152.22
3.500000	-11.5	3166.39
7.500000	-11.5	3180.64
11.5	-11.5	3350
15.5	-11.5	3124.51
19.5	-11.5	3220.08
23.5	-11.5	3130
27.5	-11.5	3350
31.5	-11.5	3173.63
35.5	-11.5	3225.74
-27	-11	3100
-23	-11	3256
-19	-11	3136.56
-15	-11	3141.59
-11	-11	3188.7
-7.000000	-11	3160.33
-3.000000	-11	3152.07
1.000000	-11	3182.95
5.000000	-11	3165.82
9.000000	-11	3192.49
13	-11	3350
17	-11	3183.82
21	-11	3186.31
25	-11	3173.6
29	-11	3309.03
33	-11	3350
37	-11	3241.49
-25.5	-10.5	3334.75
-21.5	-10.5	3265.6
-17.5	-10.5	3168.51
-13.5	-10.5	3130.89
-9.500000	-10.5	3149.56
-5.500000	-10.5	3163.3
-1.500000	-10.5	3145.4
2.500000	-10.5	3128.69
6.500000	-10.5	3178.97
10.5	-10.5	3196
14.5	-10.5	3350
18.5	-10.5	3148.69
22.5	-10.5	3179.19
26.5	-10.5	3157.65
30.5	-10.5	3197.79
34.5	-10.5	3100
-28	-10	3188.04
-24	-10	3157.56
-20	-10	3156.57
-16	-10	3164.51
-12	-10	3168.2
-8.000000	-10	3115.31
-4.000000	-10	3182.84
0.000000	-10	3141.13
4.000000	-10	3157.99
8.000000	-10	3184.68
12	-10	3178.74
16	-10	3100
20	-10	3207.97
24	-10	3179.03
28	-10	3100
32	-10	3253.34
36	-10	3154.17
-26.5	-9.500000	3350
-22.5	-9.500000	3174.73
-18.5	-9.500000	3129.49
-14.5	-9.500000	3138.74
-10.5	-9.500000	3147.36
-6.500000	-9.500000	3139.49
-2.500000	-9.500000	3155.95
1.500000	-9.500000	3167.23
5.500000	-9.500000	3182.23
9.500000	-9.500000	3188.49
13.5	-9.500000	3203.68
17.5	-9.500000	3172.77
21.5	-9.500000	3185
25.5	-9.500000	3145.02
29.5	-9.500000	3350
33.5	-9.500000	3155.47
37.5	-9.500000	3234.69
-25	-9.000000	3318.08
-21	-9.000000	3154.96
-17	-9.000000	3138.33
-13	-9.000000	3140.38
-9.000000	-9.000000	3149.2
-5.000000	-9.000000	3148.98
-1.000000	-9.000000	3185.92
3.000000	-9.000000	3161.46
7.000000	-9.000000	3225.2
11	-9.000000	3198.24
15	-9.000000	3256.68
19	-9.000000	3153.18
23	-9.000000	3154.56
27	-9.000000	3149.11
31	-9.000000	3100
35	-9.000000	3350
-27.5	-8.500000	3173.93
-23.5	-8.500000	3143.75
-19.5	-8.500000	3123.69
-15.5	-8.500000	3141.27
-11.5	-8.500000	3214.35
-7.500000	-8.500000	3156.19
-3.500000	-8.500000	3147.14
0.500000	-8.500000	3145.95
4.500000	-8.500000	3148.87
8.500000	-8.500000	3153.13
12.5	-8.500000	3214.18
16.5	-8.500000	3161.61
20.5	-8.500000	3165.03
24.5	-8.500000	3146.51
28.5	-8.500000	3177.05
32.5	-8.500000	3166.72
36.5	-8.500000	3155.19
-26	-8.000000	3162.82
-22	-8.000000	3132.85
-18	-8.000000	3121.32
-14	-8.000000	3147.88
-10	-8.000000	3158.49
-6.000000	-8.000000	3153.42
-2.000000	-8.000000	3177.14
2.000000	-8.000000	3151.12
6.000000	-8.000000	3157.42
10	-8.000000	3182.11
14	-8.000000	3157.39
18	-8.000000	3142.25
22	-8.000000	3166.08
26	-8.000000	3171.51
30	-8.000000	3193.22
34	-8.000000	3159.34
38	-8.000000	3350
-24.5	-7.500000	3142.47
-20.5	-7.500000	3157.79
-16.5	-7.500000	3146.7
-12.5	-7.500000	3159.21
-8.500000	-7.500000	3160.15
-4.500000	-7.500000	3149.37
-0.500000	-7.500000	3143.37
3.500000	-7.500000	3183.58
7.500000	-7.500000	3191.37
11.5	-7.500000	3183.97
15.5	-7.500000	3180.81
19.5	-7.500000	3181.34
23.5	-7.500000	3133.95
27.5	-7.500000	3206.31
31.5	-7.500000	3183.83
35.5	-7.500000	3191.32
-27	-7.000000	3216.86
-23	-7.000000	3152.23
-19	-7.000000	3166.42
-15	-7.000000	3162.6
-11	-7.000000	3173.62
-7.000000	-7.000000	3142.03
-3.000000	-7.000000	3151.14
1.000000	-7.000000	3150.18
5.000000	-7.000000	3240.13
9.000000	-7.000000	3167.91
13	-7.000000	3207.45
17	-7.000000	3137.94
21	-7.000000	3157.54
25	-7.000000	3185.19
29	-7.000000	3221.9
33	-7.000000	3142.47
37	-7.000000	3158.63
-25.5	-6.500000	3100
-21.5	-6.500000	3151.03
-17.5	-6.500000	3151.25
-13.5	-6.500000	3141.62
-9.500000	-6.500000	3188.03
-5.500000	-6.500000	3153.29
-1.500000	-6.500000	3128.87
2.500000	-6.500000	3197.09
6.500000	-6.500000	3190.3
10.5	-6.500000	3165.99
14.5	-6.500000	3174.48
18.5	-6.500000	3152.18
22.5	-6.500000	3132.21
26.5	-6.500000	3234.62
30.5	-6.500000	3176.84
34.5	-6.500000	3206.92
-28	-6.000000	3165.19
-24	-6.000000	3156.49
-20	-6.000000	3156.5
-16	-6.000000	3149.35
-12	-6.000000	3156.53
-8.000000	-6.000000	3133.57
-4.000000	-6.000000	3191.47
0.000000	-6.000000	3188.05
4.000000	-6.000000	3173.82
8.000000	-6.000000	3139.63
12	-6.000000	3162.75
16	-6.000000	3155.46
20	-6.000000	3129.05
24	-6.000000	3157.7
28	-6.000000	3203.7
32	-6.000000	3312.18
36	-6.000000	3160.48
-26.5	-5.500000	3212.45
-22.5	-5.500000	3161.24
-18.5	-5.500000	3137.14
-14.5	-5.500000	3163.78
-10.5	-5.500000	3244.19
-6.500000	-5.500000	3157.2
-2.500000	-5.500000	3169.23
1.500000	-5.500000	3164.03
5.500000	-5.500000	3171.6
9.500000	-5.500000	3170.76
13.5	-5.500000	3148
17.5	-5.500000	3155.08
21.5	-5.500000	3150.08
25.5	-5.500000	3205.74
29.5	-5.500000	3229.71
33.5	-5.500000	3175.03
37.5	-5.500000	3156.17
-25	-5.000000	3350
-21	-5.000000	3138.03
-17	-5.000000	3149.99
-13	-5.000000	3141.85
-9.000000	-5.000000	3167.15
-5.000000	-5.000000	3350
-1.000000	-5.000000	3142.69
3.000000	-5.000000	3173.35
7.000000	-5.000000	3182.29
11	-5.000000	3127.59
15	-5.000000	3151.99
19	-5.000000	3115.23
23	-5.000000	3156.95
27	-5.000000	3158.99
31	-5.000000	3134.49
35	-5.000000	3173.24
-27.5	-4.500000	3179.65
-23.5	-4.500000	3105.51
-19.5	-4.500000	3133.94
-15.5	-4.500000	3157.97
-11.5	-4.500000	3206.77
-7.500000	-4.500000	3200.2
-3.500000	-4.500000	3350
0.500000	-4.500000	3142.36
4.500000	-4.500000	3154.29
8.500000	-4.500000	3209.99
12.5	-4.500000	3132.27
16.5	-4.500000	3156.22
20.5	-4.500000	3193.22
24.5	-4.500000	3146.33
28.5	-4.500000	3149.5
32.5	-4.500000	3185.51
36.5	-4.500000	3125.78
-26	-4.000000	3151.52
-22	-4.000000	3138.54
-18	-4.000000	3157.48
-14	-4.000000	3179.12
-10	-4.000000	3119.16
-6.000000	-4.000000	3325.89
-2.000000	-4.000000	3156.03
2.000000	-4.000000	3166.85
6.000000	-4.000000	3288.38
10	-4.000000	3221.98
14	-4.000000	3142.94
18	-4.000000	3156.9
22	-4.000000	3130.88
26	-4.000000	3220.95
30	-4.000000	3225.78
34	-4.000000	3177.14
38	-4.000000	3186.47
-24.5	-3.500000	3350
-20.5	-3.500000	3132.27
-16.5	-3.500000	3171.95
-12.5	-3.500000	3295.17
-8.500000	-3.500000	3350
-4.500000	-3.500000	3350
-0.500000	-3.500000	3173.16
3.500000	-3.500000	3179.18
7.500000	-3.500000	3170.13
11.5	-3.500000	3162.06
15.5	-3.500000	3156.27
19.5	-3.500000	3137.18
23.5	-3.500000	3181.61
27.5	-3.500000	3151.6
31.5	-3.500000	3100
35.5	-3.500000	3174.96
-27	-3.000000	3350
-23	-3.000000	3211.07
-19	-3.000000	3154.64
-15	-3.000000	3151.38
-11	-3.000000	3350
-7.000000	-3.000000	3350
-3.000000	-3.000000	3350
1.000000	-3.000000	3170.57
5.000000	-3.000000	3134.64
9.000000	-3.000000	3204.16
13	-3.000000	3122.54
17	-3.000000	3149.01
21	-3.000000	3124.87
25	-3.000000	3128.5
29	-3.000000	3149.75
33	-3.000000	3100
37	-3.000000	3171.49
-25.5	-2.500000	3350
-21.5	-2.500000	3200.78
-17.5	-2.500000	3174.18
-13.5	-2.500000	3184.94
-9.500000	-2.500000	3100
-5.500000	-2.500000	3350
-1.500000	-2.500000	3161.53
2.500000	-2.500000	3181.54
6.500000	-2.500000	3206.48
10.5	-2.500000	3154.71
14.5	-2.500000	3176.82
18.5	-2.500000	3155.5
22.5	-2.500000	3167.53
26.5	-2.500000	3209.42
30.5	-2.500000	3313.19
34.5	-2.500000	3174.46
-28	-2.000000	3201.87
-24	-2.000000	3350
-20	-2.000000	3191.86
-16	-2.000000	3202.82
-12	-2.000000	3153.44
-8.000000	-2.000000	3194.06
-4.000000	-2.000000	3350
0.000000	-2.000000	3160.86
4.000000	-2.000000	3350
8.000000	-2.000000	3204.12
12	-2.000000	3157.39
16	-2.000000	3155.42
20	-2.000000	3142.93
24	-2.000000	3174.83
28	-2.000000	3154.18
32	-2.000000	3216.43
36	-2.000000	3171.69
-26.5	-1.500000	3350
-22.5	-1.500000	3350
-18.5	-1.500000	3160.45
-14.5	-1.500000	3178.97
-10.5	-1.500000	3179.29
-6.500000	-1.500000	3350
-2.500000	-1.500000	3100
1.500000	-1.500000	3147.29
5.500000	-1.500000	3179.72
9.500000	-1.500000	3168.07
13.5	-1.500000	3167.74
17.5	-1.500000	3128.9
21.5	-1.500000	3146.69
25.5	-1.500000	3158.84
29.5	-1.500000	3139.95
33.5	-1.500000	3350
37.5	-1.500000	3175.27
-25	-1.000000	3285.29
-21	-1.000000	3350
-17	-1.000000	3179.25
-13	-1.000000	3153.14
-9.000000	-1.000000	3140.96
-5.000000	-1.000000	3350
-1.000000	-1.000000	3146.93
3.000000	-1.000000	3100
7.000000	-1.000000	3117.69
11	-1.000000	3160.81
15	-1.000000	3117.09
19	-1.000000	3152.16
23	-1.000000	3100
27	-1.000000	3182.68
31	-1.000000	3151.48
35	-1.000000	3202.64
-27.5	-0.500000	3206.34
-23.5	-0.500000	3244.73
-19.5	-0.500000	3180.81
-15.5	-0.500000	3163.18
-11.5	-0.500000	3142.99
-7.500000	-0.500000	3100
-3.500000	-0.500000	3246.49
0.500000	-0.500000	3161.43
4.500000	-0.500000	3106.11
8.500000	-0.500000	3166.41
12.5	-0.500000	3141.43
16.5	-0.500000	3167.69
20.5	-0.500000	3171.63
24.5	-0.500000	3165.39
28.5	-0.500000	3141.74
32.5	-0.500000	3100
36.5	-0.500000	3183.83
-26	0.000000	3176.47
-22	0.000000	3100
-18	0.000000	3170.63
-14	0.000000	3155.85
-10	0.000000	3180.71
-6.000000	0.000000	3295.41
-2.000000	0.000000	3185.64
2.000000	0.000000	3156.16
6.000000	0.000000	3187.19
10	0.000000	3157.03
14	0.000000	3145.41
18	0.000000	3152.57
22	0.000000	3152.47
26	0.000000	3131.43
30	0.000000	3160.54
34	0.000000	3350
38	0.000000	3148.59
-24.5	0.500000	3174.78
-20.5	0.500000	3100
-16.5	0.500000	3183.84
-12.5	0.500000	3146
-8.500000	0.500000	3160.31
-4.500000	0.500000	3350
-0.500000	0.500000	3150.76
3.500000	0.500000	3170.39
7.500000	0.500000	3156.56
11.5	0.500000	3178.76
15.5	0.500000	3162.32
19.5	0.500000	3136.18
23.5	0.500000	3153.82
27.5	0.500000	3160.71
31.5	0.500000	3190.78
35.5	0.500000	3100
-27	1.000000	3189.08
-23	1.000000	3167.27
-19	1.000000	3162.15
-15	1.000000	3175.88
-11	1.000000	3168.93
-7.000000	1.000000	3100
-3.000000	1.000000	3225.76
1.000000	1.000000	3129.25
5.000000	1.000000	3165.72
9.000000	1.000000	3160.95
13	1.000000	3138.19
17	1.000000	3127.16
21	1.000000	3151.22
25	1.000000	3159.21
29	1.000000	3136.2
33	1.000000	3100
37	1.000000	3350
-25.5	1.500000	3192.13
-21.5	1.500000	3201.37
-17.5	1.500000	3165.11
-13.5	1.500000	3157.9
-9.500000	1.500000	3139.06
-5.500000	1.500000	3350
-1.500000	1.500000	3221.74
2.500000	1.500000	3171.2
6.500000	1.500000	3153.57
10.5	1.500000	3145.23
14.5	1.500000	3135.8
18.5	1.500000	3162.92
22.5	1.500000	3173.58
26.5	1.500000	3154.04
30.5	1.500000	3144.68
34.5	1.500000	3294.01
-28	2.000000	3170.83
-24	2.000000	3184.94
-20	2.000000	3146.68
-16	2.000000	3186.97
-12	2.000000	3142.01
-8.000000	2.000000	3167.32
-4.000000	2.000000	3110.99
0.000000	2.000000	3203.79
4.000000	2.000000	3159.26
8.000000	2.000000	3218.01
12	2.000000	3160.09
16	2.000000	3157.43
20	2.000000	3142.93
24	2.000000	3148.67
28	2.000000	3170.45
32	2.000000	3350
36	2.000000	3100
-26.5	2.500000	3157.68
-22.5	2.500000	3187.94
-18.5	2.500000	3141.68
-14.5	2.500000	3143.94
-10.5	2.500000	3152.53
-6.500000	2.500000	3164.88
-2.500000	2.500000	3182.72
1.500000	2.500000	3160.6
5.500000	2.500000	3169.66
9.500000	2.500000	3165.57
13.5	2.500000	3167.86
17.5	2.500000	3160.09
21.5	2.500000	3144.63
25.5	2.500000	3127.82
29.5	2.500000	3140.79
33.5	2.500000	3350
37.5	2.500000	3151.31
-25	3.000000	3238.26
-21	3.000000	3178.55
-17	3.000000	3157.07
-13	3.000000	3147.99
-9.000000	3.000000	3160.55
-5.000000	3.000000	3204.61
-1.000000	3.000000	3230.93
3.000000	3.000000	3139.74
7.000000	3.000000	3161.92
11	3.000000	3135.3
15	3.000000	3156.13
19	3.000000	3164.42
23	3.000000	3160.59
27	3.000000	3125.55
31	3.000000	3187.49
35	3.000000	3350
-27.5	3.500000	3169.42
-23.5	3.500000	3186.15
-19.5	3.500000	3157.9
-15.5	3.500000	3141.33
-11.5	3.500000	3142.24
-7.500000	3.500000	3164.32
-3.500000	3.500000	3198.06
0.500000	3.500000	3170.47
4.500000	3.500000	3121.45
8.500000	3.500000	3146.81
12.5	3.500000	3141.05
16.5	3.500000	3131.48
20.5	3.500000	3134.82
24.5	3.500000	3183.21
28.5	3.500000	3133.29
32.5	3.500000	3350
36.5	3.500000	3134.47
-26	4.000000	3173.54
-22	4.000000	3174.87
-18	4.000000	3170.78
-14	4.000000	3165.12
-10	4.000000	3139.88
-6.000000	4.000000	3171.11
-2.000000	4.000000	3188.35
2.000000	4.000000	3143.67
6.000000	4.000000	3144.75
10	4.000000	3170.28
14	4.000000	3161.07
18	4.000000	3145.3
22	4.000000	3144.89
26	4.000000	3142.89
30	4.000000	3215.97
34	4.000000	3350
38	4.000000	3177.84
-24.5	4.500000	3165.23
-20.5	4.500000	3306.01
-16.5	4.500000	3176.97
-12.5	4.500000	3168.32
-8.500000	4.500000	3175.23
-4.500000	4.500000	3182.63
-0.500000	4.500000	3176.21
3.500000	4.500000	3130.24
7.500000	4.500000	3155.02
11.5	4.500000	3134.59
15.5	4.500000	3128.53
19.5	4.500000	3142.97
23.5	4.500000	3141.93
27.5	4.500000	3142.68
31.5	4.500000	3100
35.5	4.500000	3140.98
-27	5.000000	3165.42
-23	5.000000	3169.34
-19	5.000000	3182.85
-15	5.000000	3160.54
-11	5.000000	3161.68
-7.000000	5.000000	3149.48
-3.000000	5.000000	3199.27
1.000000	5.000000	3149.73
5.000000	5.000000	3173.28
9.000000	5.000000	3189.1
13	5.000000	3137.49
17	5.000000	3162.88
21	5.000000	3146.18
25	5.000000	3183.74
29	5.000000	3146.96
33	5.000000	3165.57
37	5.000000	3163.54
-25.5	5.500000	3164.64
-21.5	5.500000	3157.74
-17.5	5.500000	3168.44
-13.5	5.500000	3137.29
-9.500000	5.500000	3147.52
-5.500000	5.500000	3138.74
-1.500000	5.500000	3191.73
2.500000	5.500000	3144.09
6.500000	5.500000	3159.18
10.5	5.500000	3169
14.5	5.500000	3157.41
18.5	5.500000	3125.33
22.5	5.500000	3156.51
26.5	5.500000	3149.88
30.5	5.500000	3158.15
34.5	5.500000	3177.4
-28	6.000000	3172.6
-24	6.000000	3186.91
-20	6.000000	3177.41
-16	6.000000	3144.7
-12	6.000000	3147.35
-8.000000	6.000000	3169.11
-4.000000	6.000000	3219.63
0.000000	6.000000	3169.94
4.000000	6.000000	3172.07
8.000000	6.000000	3167.43
12	6.000000	3182.49
16	6.000000	3163.58
20	6.000000	3153.19
24	6.000000	3153.04
28	6.000000	3107.25
32	6.000000	3178.6
36	6.000000	3176.89
-26.5	6.500000	3188.33
-22.5	6.500000	3166.73
-18.5	6.500000	3150.92
-14.5	6.500000	3152.91
-10.5	6.500000	3168.28
-6.500000	6.500000	3152.2
-2.500000	6.500000	3199.84
1.500000	6.500000	3140.31
5.500000	6.500000	3151.03
9.500000	6.500000	3182.92
13.5	6.500000	3160.8
17.5	6.500000	3140.79
21.5	6.500000	3183.66
25.5	6.500000	3158.29
29.5	6.500000	3164.6
33.5	6.500000	3166.9
37.5	6.500000	3181.58
-25	7.000000	3350
-21	7.000000	3182.17
-17	7.000000	3191.73
-13	7.000000	3146.57
-9.000000	7.000000	3158.82
-5.000000	7.000000	3158.58
-1.000000	7.000000	3163.24
3.000000	7.000000	3174.26
7.000000	7.000000	3181.04
11	7.000000	3199.32
15	7.000000	3158.95
19	7.000000	3176.46
23	7.000000	3160.68
27	7.000000	3146.08
31	7.000000	3142.54
35	7.000000	3166.64
-27.5	7.500000	3187
-23.5	7.500000	3100
-19.5	7.500000	3176.72
-15.5	7.500000	3154.67
-11.5	7.500000	3127.76
-7.500000	7.500000	3141.54
-3.500000	7.500000	3166.78
0.500000	7.500000	3174.39
4.500000	7.500000	3165.64
8.500000	7.500000	3194.08
12.5	7.500000	3155.22
16.5	7.500000	3159.49
20.5	7.500000	3178.39
24.5	7.500000	3215.03
28.5	7.500000	3160.51
32.5	7.500000	3165.35
36.5	7.500000	3154.97
-26	8.000000	3168.7
-22	8.000000	3169.09
-18	8.000000	3188.41
-14	8.000000	3151.15
-10	8.000000	3136.18
-6.000000	8.000000	3171.43
-2.000000	8.000000	3195.03
2.000000	8.000000	3149.38
6.000000	8.000000	3176.68
10	8.000000	3190.98
14	8.000000	3174.82
18	8.000000	3167.39
22	8.000000	3148.19
26	8.000000	3169.99
30	8.000000	3156.96
34	8.000000	3166.99
38	8.000000	3142.98
-24.5	8.500000	3186.12
-20.5	8.500000	3179.06
-16.5	8.500000	3160.66
-12.5	8.500000	3167.16
-8.500000	8.500000	3147.04
-4.500000	8.500000	3157.78
-0.500000	8.500000	3163.98
3.500000	8.500000	3220.77
7.500000	8.500000	3138.38
11.5	8.500000	3124.41
15.5	8.500000	3160.09
19.5	8.500000	3190.91
23.5	8.500000	3158.15
27.5	8.500000	3147.68
31.5	8.500000	3183.59
35.5	8.500000	3176.19
-27	9.000000	3100
-23	9.000000	3142.01
-19	9.000000	3162.39
-15	9.000000	3178.45
-11	9.000000	3147.75
-7.000000	9.000000	3151.49
-3.000000	9.000000	3148.69
1.000000	9.000000	3169.66
5.000000	9.000000	3141.12
9.000000	9.000000	3159.58
13	9.000000	3167.98
17	9.000000	3175.9
21	9.000000	3151.01
25	9.000000	3185.84
29	9.000000	3150.92
33	9.000000	3181.9
37	9.000000	3148.7
-25.5	9.500000	3350
-21.5	9.500000	3171.27
-17.5	9.500000	3165.34
-13.5	9.500000	3164.5
-9.500000	9.500000	3154.37
-5.500000	9.500000	3153.04
-1.500000	9.500000	3100
2.500000	9.500000	3226.8
6.500000	9.500000	3201.61
10.5	9.500000	3164.24
14.5	9.500000	3143.39
18.5	9.500000	3127.81
22.5	9.500000	3121.18
26.5	9.500000	3161.31
30.5	9.500000	3149.86
34.5	9.500000	3142.19
-28	10	3319.77
-24	10	3216.86
-20	10	3155.69
-16	10	3161.07
-12	10	3152.11
-8.000000	10	3159.83
-4.000000	10	3151.1
0.000000	10	3187.01
4.000000	10	3329.68
8.000000	10	3161.02
12	10	3155.06
16	10	3156.57
20	10	3148.04
24	10	3181.59
28	10	3168.73
32	10	3166.51
36	10	3166.77
-26.5	10.5	3100
-22.5	10.5	3189.76
-18.5	10.5	3179.02
-14.5	10.5	3149.88
-10.5	10.5	3139.12
-6.500000	10.5	3156.38
-2.500000	10.5	3153.81
1.500000	10.5	3178.36
5.500000	10.5	3100
9.500000	10.5	3146.31
13.5	10.5	3168.63
17.5	10.5	3145.83
21.5	10.5	3153.29
25.5	10.5	3170.69
29.5	10.5	3167.04
33.5	10.5	3169.34
37.5	10.5	3173.69
-25	11	3350
-21	11	3174.61
-17	11	3138.11
-13	11	3141.94
-9.000000	11	3155.95
-5.000000	11	3141.35
-1.000000	11	3157.15
3.000000	11	3209.91
7.000000	11	3181.76
11	11	3174.16
15	11	3177.04
19	11	3174.25
23	11	3134.99
27	11	3164.77
31	11	3167.61
35	11	3134.43
-27.5	11.5	3171.31
-23.5	11.5	3175.29
-19.5	11.5	3276.02
-15.5	11.5	3144.42
-11.5	11.5	3139.88
-7.500000	11.5	3141.47
-3.500000	11.5	3161.3
0.500000	11.5	3158.86
4.500000	11.5	3350
8.500000	11.5	3155.19
12.5	11.5	3149.39
16.5	11.5	3149.8
20.5	11.5	3173.6
24.5	11.5	3189.88
28.5	11.5	3154.02
32.5	11.5	3170.85
36.5	11.5	3153.54
-26	12	3350
-22	12	3155.89
-18	12	3100
-14	12	3128.44
-10	12	3151.15
-6.000000	12	3152.8
-2.000000	12	3156.42
2.000000	12	3194.32
6.000000	12	3100
10	12	3182.5
14	12	3121.12
18	12	3168.92
22	12	3183.64
26	12	3157.86
30	12	3189.75
34	12	3177.08
38	12	3155.99
-24.5	12.5	3350
-20.5	12.5	3100
-16.5	12.5	3296.07
-12.5	12.5	3138.3
-8.500000	12.5	3153.34
-4.500000	12.5	3149.15
-0.500000	12.5	3185.01
3.500000	12.5	3350
7.500000	12.5	3191.51
11.5	12.5	3185.1
15.5	12.5	3152.25
19.5	12.5	3175.33
23.5	12.5	3175.74
27.5	12.5	3157.89
31.5	12.5	3167.58
35.5	12.5	3175.53
-27	13	3350
-23	13	3244.64
-19	13	3350
-15	13	3100
-11	13	3171.42
-7.000000	13	3136.47
-3.000000	13	3148.27
1.000000	13	3211.58
5.000000	13	3350
9.000000	13	3168.26
13	13	3153.27
17	13	3168.74
21	13	3149.7
25	13	3174.56
29	13	3179.11
33	13	3156.84
37	13	3157.19
-25.5	13.5	3350
-21.5	13.5	3234.69
-17.5	13.5	3145.01
-13.5	13.5	3152.42
-9.500000	13.5	3160.08
-5.500000	13.5	3155.32
-1.500000	13.5	3156.7
2.500000	13.5	3205.57
6.500000	13.5	3257.82
10.5	13.5	3236.1
14.5	13.5	3151.86
18.5	13.5	3170.27
22.5	13.5	3166.64
26.5	13.5	3166.78
30.5	13.5	3183.16
34.5	13.5	3186.96
-28	14	3350
-24	14	3350
-20	14	3238.61
-16	14	3350
-12	14	3113.34
-8.000000	14	3162.18
-4.000000	14	3142.01
0.000000	14	3176.71
4.000000	14	3100
8.000000	14	3141.98
12	14	3171.77
16	14	3156.83
20	14	3177.11
24	14	3166.85
28	14	3138.29
32	14	3170.4
36	14	3170.36
-26.5	14.5	3150.18
-22.5	14.5	3212.22
-18.5	14.5	3350
-14.5	14.5	3350
-10.5	14.5	3178.24
-6.500000	14.5	3116.53
-2.500000	14.5	3149.04
1.500000	14.5	3104.9
5.500000	14.5	3350
9.500000	14.5	3183.2
13.5	14.5	3176.48
17.5	14.5	3171.96
21.5	14.5	3145.48
25.5	14.5	3149.1
29.5	14.5	3177.62
33.5	14.5	3169.87
37.5	14.5	3157.81
-25	15	3144.14
-21	15	3350
-17	15	3350
-13	15	3247.49
-9.000000	15	3157.87
-5.000000	15	3350
-1.000000	15	3183.17
3.000000	15	3215.46
7.000000	15	3109.72
11	15	3175.18
15	15	3149.07
19	15	3176.26
23	15	3149.31
27	15	3131.42
31	15	3138.58
35	15	3185.15
-27.5	15.5	3350
-23.5	15.5	3182.8
-19.5	15.5	3209
-15.5	15.5	3195.52
-11.5	15.5	3164.16
-7.500000	15.5	3312.42
-3.500000	15.5	3350
0.500000	15.5	3142.04
4.500000	15.5	3145.68
8.500000	15.5	3101.01
12.5	15.5	3198.38
16.5	15.5	3167.06
20.5	15.5	3137.36
24.5	15.5	3171.36
28.5	15.5	3151.11
32.5	15.5	3147.85
36.5	15.5	3156.33
-26	16	3100
-22	16	3350
-18	16	3100
-14	16	3350
-10	16	3170.12
-6.000000	16	3350
-2.000000	16	3304.77
2.000000	16	3161.58
6.000000	16	3100
10	16	3170.17
14	16	3176.01
18	16	3198.24
22	16	3160.08
26	16	3155.88
30	16	3160.16
34	16	3176.88
38	16	3350
-24.5	16.5	3106.86
-20.5	16.5	3100
-16.5	16.5	3350
-12.5	16.5	3194.46
-8.500000	16.5	3121.43
-4.500000	16.5	3292.62
-0.500000	16.5	3207.04
3.500000	16.5	3147.08
7.500000	16.5	3350
11.5	16.5	3161.24
15.5	16.5	3160.82
19.5	16.5	3169.12
23.5	16.5	3180.46
27.5	16.5	3136.7
31.5	16.5	3350
35.5	16.5	3148.95
-27	17	3213.15
-23	17	3141.07
-19	17	3350
-15	17	3350
-11	17	3173.12
-7.000000	17	3350
-3.000000	17	3339.6
1.000000	17	3152.6
5.000000	17	3181.12
9.000000	17	3173.08
13	17	3179.17
17	17	3154.62
21	17	3175.5
25	17	3147.08
29	17	3100
33	17	3180.39
37	17	3100
-25.5	17.5	3147.46
-21.5	17.5	3350
-17.5	17.5	3100
-13.5	17.5	3230.9
-9.500000	17.5	3185.49
-5.500000	17.5	3242.68
-1.500000	17.5	3350
2.500000	17.5	3190.47
6.500000	17.5	3100
10.5	17.5	3157.56
14.5	17.5	3164.6
18.5	17.5	3170.58
22.5	17.5	3154.68
26.5	17.5	3225.49
30.5	17.5	3350
34.5	17.5	3136.57
-28	18	3270.58
-24	18	3350
-20	18	3350
-16	18	3350
-12	18	3154.85
-8.000000	18	3350
-4.000000	18	3302.37
0.000000	18	3100
4.000000	18	3163.52
8.000000	18	3350
12	18	3165.75
16	18	3197.45
20	18	3171.28
24	18	3156.86
28	18	3214.57
32	18	3100
36	18	3349.46
-26.5	18.5	3230.76
-22.5	18.5	3350
-18.5	18.5	3324.2
-14.5	18.5	3184.84
-10.5	18.5	3205.22
-6.500000	18.5	3190.95
-2.500000	18.5	3100
1.500000	18.5	3172.58
5.500000	18.5	3350
9.500000	18.5	3100
13.5	18.5	3163.91
17.5	18.5	3140.18
21.5	18.5	3161.54
25.5	18.5	3187.11
29.5	18.5	3350
33.5	18.5	3177.29
37.5	18.5	3280.02
-25	19	3312.84
-21	19	3350
-17	19	3350
-13	19	3156.94
-9.000000	19	3210.4
-5.000000	19	3155.73
-1.000000	19	3156.07
3.000000	19	3199.14
7.000000	19	3350
11	19	3146.61
15	19	3187.17
19	19	3177.18
23	19	3166.21
27	19	3350
31	19	3153.39
35	19	3154.61
-27.5	19.5	3152.5
-23.5	19.5	3350
-19.5	19.5	3292.96
-15.5	19.5	3350
-11.5	19.5	3245.14
-7.500000	19.5	3350
-3.500000	19.5	3169.73
0.500000	19.5	3165.22
4.500000	19.5	3109.57
8.500000	19.5	3100
12.5	19.5	3161.24
16.5	19.5	3166.57
20.5	19.5	3210.89
24.5	19.5	3208.5
28.5	19.5	3238.43
32.5	19.5	3188.82
36.5	19.5	3100
-26	20	3350
-22	20	3120.48
-18	20	3127.13
-14	20	3100
-10	20	3216.54
-6.000000	20	3154.14
-2.000000	20	3136.55
2.000000	20	3177.45
6.000000	20	3350
10	20	3161.74
14	20	3172.02
18	20	3159.38
22	20	3183.25
26	20	3100
30	20	3159.54
34	20	3144.07
38	20	3169.35