File: data/derived_data/raman/20170920_Gr-NH2_for_Radisurf/20170920 Gr-NH for Radisurf map 1/2Dp int.txt
#XList		#YList		#IList
-28	-22	1.662526
-24	-22	14.695
-20	-22	3.230354
-16	-22	6.797421
-12	-22	8.961442
-8.000000	-22	22.3687
-4.000000	-22	16.263
0.000000	-22	21.3518
4.000000	-22	6.153598
8.000000	-22	24.8021
12	-22	15.6199
16	-22	15.8189
20	-22	34.7852
24	-22	4.853790
28	-22	0.910300
32	-22	9.521131
36	-22	3.316350
-26.5	-21.5	2.413105
-22.5	-21.5	13.9943
-18.5	-21.5	13.8798
-14.5	-21.5	13.1003
-10.5	-21.5	8.844190
-6.500000	-21.5	10.1657
-2.500000	-21.5	15.0704
1.500000	-21.5	2.054727
5.500000	-21.5	17.6781
9.500000	-21.5	10.6786
13.5	-21.5	16.4509
17.5	-21.5	8.169787
21.5	-21.5	23.0537
25.5	-21.5	2.083420
29.5	-21.5	4.786364
33.5	-21.5	1.379946
37.5	-21.5	1.835968
-25	-21	5.022710
-21	-21	13.1653
-17	-21	13.2075
-13	-21	0.641302
-9.000000	-21	12.9272
-5.000000	-21	17.2807
-1.000000	-21	10.0335
3.000000	-21	2.172048
7.000000	-21	8.249985
11	-21	12.7015
15	-21	10.9355
19	-21	15.3708
23	-21	17.1587
27	-21	15.8267
31	-21	40.6271
35	-21	2.523225
-27.5	-20.5	1.615535
-23.5	-20.5	7.310666
-19.5	-20.5	7.377712
-15.5	-20.5	11.9262
-11.5	-20.5	1.329664
-7.500000	-20.5	9.843626
-3.500000	-20.5	12.6272
0.500000	-20.5	0.460210
4.500000	-20.5	13.7356
8.500000	-20.5	9.083414
12.5	-20.5	10.598
16.5	-20.5	18.028
20.5	-20.5	18.4643
24.5	-20.5	11.7167
28.5	-20.5	10.7613
32.5	-20.5	2.057784
36.5	-20.5	2.134047
-26	-20	3.217778
-22	-20	14.5322
-18	-20	15.1537
-14	-20	4.430585
-10	-20	10.0607
-6.000000	-20	1.428179
-2.000000	-20	4.436638
2.000000	-20	2.422307
6.000000	-20	17.5074
10	-20	10.3688
14	-20	9.956969
18	-20	0.000000
22	-20	16.1294
26	-20	2.242141
30	-20	9.296295
34	-20	2.145031
38	-20	2.673563
-24.5	-19.5	3.090114
-20.5	-19.5	12.7585
-16.5	-19.5	6.484219
-12.5	-19.5	2.698675
-8.500000	-19.5	7.900474
-4.500000	-19.5	14.2218
-0.500000	-19.5	2.309674
3.500000	-19.5	9.499460
7.500000	-19.5	6.004567
11.5	-19.5	9.063912
15.5	-19.5	10.8999
19.5	-19.5	20.3966
23.5	-19.5	11.5466
27.5	-19.5	1.644238
31.5	-19.5	2.703952
35.5	-19.5	1.839890
-27	-19	10.2804
-23	-19	6.461370
-19	-19	6.984461
-15	-19	7.591318
-11	-19	3.063147
-7.000000	-19	5.489489
-3.000000	-19	7.337070
1.000000	-19	2.251456
5.000000	-19	10.9079
9.000000	-19	7.036391
13	-19	7.053151
17	-19	8.094291
21	-19	18.7012
25	-19	2.202839
29	-19	19.2459
33	-19	0.282440
37	-19	2.565168
-25.5	-18.5	2.304419
-21.5	-18.5	0.000000
-17.5	-18.5	11.0062
-13.5	-18.5	2.026861
-9.500000	-18.5	2.352812
-5.500000	-18.5	8.156025
-1.500000	-18.5	11.8445
2.500000	-18.5	12.2208
6.500000	-18.5	14.4252
10.5	-18.5	13.8931
14.5	-18.5	10.4593
18.5	-18.5	19.9108
22.5	-18.5	18.4645
26.5	-18.5	11.1895
30.5	-18.5	14.9464
34.5	-18.5	1.669721
-28	-18	1.566507
-24	-18	0.000000
-20	-18	2.354333
-16	-18	16.5509
-12	-18	0.957761
-8.000000	-18	1.188849
-4.000000	-18	16.516
0.000000	-18	5.235199
4.000000	-18	20.6485
8.000000	-18	10.1639
12	-18	7.182402
16	-18	6.257715
20	-18	14.3143
24	-18	7.641769
28	-18	2.727081
32	-18	1.257071
36	-18	2.092932
-26.5	-17.5	0.136828
-22.5	-17.5	0.787121
-18.5	-17.5	10.9333
-14.5	-17.5	7.203677
-10.5	-17.5	0.437216
-6.500000	-17.5	2.061252
-2.500000	-17.5	18.6677
1.500000	-17.5	7.025943
5.500000	-17.5	6.891200
9.500000	-17.5	13.0674
13.5	-17.5	10.8449
17.5	-17.5	14.1513
21.5	-17.5	17.3636
25.5	-17.5	14.0982
29.5	-17.5	10.2022
33.5	-17.5	2.008751
37.5	-17.5	1.209767
-25	-17	2.103358
-21	-17	2.287529
-17	-17	8.027205
-13	-17	5.956638
-9.000000	-17	2.698700
-5.000000	-17	10.5099
-1.000000	-17	7.186293
3.000000	-17	11.2523
7.000000	-17	11.8916
11	-17	10.1015
15	-17	8.955496
19	-17	18.5874
23	-17	4.405014
27	-17	7.713981
31	-17	11.6653
35	-17	2.592495
-27.5	-16.5	7.168090
-23.5	-16.5	0.923188
-19.5	-16.5	13.4525
-15.5	-16.5	16.3594
-11.5	-16.5	8.871552
-7.500000	-16.5	4.148572
-3.500000	-16.5	9.420637
0.500000	-16.5	5.714006
4.500000	-16.5	12.7322
8.500000	-16.5	6.385038
12.5	-16.5	8.296545
16.5	-16.5	14.5561
20.5	-16.5	11.1322
24.5	-16.5	12.5608
28.5	-16.5	12.2718
32.5	-16.5	1.757708
36.5	-16.5	3.976225
-26	-16	1.238903
-22	-16	5.572162
-18	-16	24.3173
-14	-16	9.821271
-10	-16	16.8209
-6.000000	-16	16.9752
-2.000000	-16	14.7688
2.000000	-16	7.913383
6.000000	-16	17.3804
10	-16	6.912355
14	-16	9.976008
18	-16	7.574918
22	-16	10.9321
26	-16	9.777349
30	-16	12.9767
34	-16	0.482182
38	-16	0.189822
-24.5	-15.5	0.585545
-20.5	-15.5	0.870967
-16.5	-15.5	19.0996
-12.5	-15.5	12.9495
-8.500000	-15.5	10.7758
-4.500000	-15.5	13.7691
-0.500000	-15.5	19.6662
3.500000	-15.5	4.486769
7.500000	-15.5	11.3
11.5	-15.5	9.484970
15.5	-15.5	9.392476
19.5	-15.5	6.021742
23.5	-15.5	2.603796
27.5	-15.5	6.816658
31.5	-15.5	2.698699
35.5	-15.5	15.8001
-27	-15	2.060612
-23	-15	2.997229
-19	-15	13.152
-15	-15	22.9624
-11	-15	13.0616
-7.000000	-15	14.0411
-3.000000	-15	13.8732
1.000000	-15	11.3204
5.000000	-15	11.8371
9.000000	-15	10.9017
13	-15	10.2513
17	-15	8.453295
21	-15	2.783230
25	-15	4.766482
29	-15	7.016740
33	-15	3.350761
37	-15	4.700212
-25.5	-14.5	2.697042
-21.5	-14.5	2.033603
-17.5	-14.5	20.3018
-13.5	-14.5	10.7141
-9.500000	-14.5	15.3026
-5.500000	-14.5	10
-1.500000	-14.5	13.6371
2.500000	-14.5	8.275095
6.500000	-14.5	14.1787
10.5	-14.5	6.970975
14.5	-14.5	10.6128
18.5	-14.5	9.373009
22.5	-14.5	1.970378
26.5	-14.5	4.513847
30.5	-14.5	5.159401
34.5	-14.5	21.8456
-28	-14	2.405854
-24	-14	4.411849
-20	-14	2.717051
-16	-14	15.4904
-12	-14	11.3173
-8.000000	-14	9.219261
-4.000000	-14	12.6082
0.000000	-14	17.5217
4.000000	-14	6.971154
8.000000	-14	13.3899
12	-14	14.31
16	-14	10.8265
20	-14	7.068734
24	-14	9.323510
28	-14	10.9041
32	-14	8.333224
36	-14	8.193307
-26.5	-13.5	0.722194
-22.5	-13.5	2.632021
-18.5	-13.5	8.505288
-14.5	-13.5	16.2924
-10.5	-13.5	4.944685
-6.500000	-13.5	16.8261
-2.500000	-13.5	12.8129
1.500000	-13.5	9.847058
5.500000	-13.5	13.414
9.500000	-13.5	5.076915
13.5	-13.5	7.915282
17.5	-13.5	8.331208
21.5	-13.5	2.036538
25.5	-13.5	5.428106
29.5	-13.5	10.0664
33.5	-13.5	13.0511
37.5	-13.5	14.1163
-25	-13	1.887822
-21	-13	8.445453
-17	-13	0.564599
-13	-13	15.9132
-9.000000	-13	14.2885
-5.000000	-13	15.6101
-1.000000	-13	10.414
3.000000	-13	9.947295
7.000000	-13	18.5848
11	-13	1.442742
15	-13	4.694945
19	-13	1.745779
23	-13	11.9269
27	-13	6.531528
31	-13	1.816245
35	-13	5.572707
-27.5	-12.5	4.743050
-23.5	-12.5	2.108280
-19.5	-12.5	2.584698
-15.5	-12.5	48.0238
-11.5	-12.5	8.516366
-7.500000	-12.5	9.344084
-3.500000	-12.5	11.6735
0.500000	-12.5	10.1023
4.500000	-12.5	3.685633
8.500000	-12.5	6.860126
12.5	-12.5	1.990490
16.5	-12.5	24.3401
20.5	-12.5	5.693185
24.5	-12.5	26.6087
28.5	-12.5	11.9594
32.5	-12.5	1.337967
36.5	-12.5	7.964715
-26	-12	3.970738
-22	-12	0.622756
-18	-12	19.3046
-14	-12	16.8054
-10	-12	24.6461
-6.000000	-12	20.6412
-2.000000	-12	8.316362
2.000000	-12	8.969135
6.000000	-12	5.397857
10	-12	1.634145
14	-12	4.026072
18	-12	8.680369
22	-12	2.535458
26	-12	11.4012
30	-12	12.036
34	-12	8.358606
38	-12	4.354366
-24.5	-11.5	1.525156
-20.5	-11.5	1.319259
-16.5	-11.5	21.8766
-12.5	-11.5	5.437307
-8.500000	-11.5	9.676882
-4.500000	-11.5	12.8303
-0.500000	-11.5	5.630514
3.500000	-11.5	14.2887
7.500000	-11.5	19.1754
11.5	-11.5	2.152406
15.5	-11.5	3.862241
19.5	-11.5	3.951251
23.5	-11.5	14.4925
27.5	-11.5	2.678932
31.5	-11.5	3.914392
35.5	-11.5	10.2895
-27	-11	1.487567
-23	-11	1.186717
-19	-11	13.6674
-15	-11	12.109
-11	-11	15.6937
-7.000000	-11	11.0984
-3.000000	-11	18.8665
1.000000	-11	6.753325
5.000000	-11	7.075283
9.000000	-11	16.1898
13	-11	2.666997
17	-11	6.039707
21	-11	11.6905
25	-11	13.3512
29	-11	0.568275
33	-11	2.880696
37	-11	23.102
-25.5	-10.5	1.683577
-21.5	-10.5	1.249464
-17.5	-10.5	12.9524
-13.5	-10.5	8.665862
-9.500000	-10.5	17.8571
-5.500000	-10.5	13.7344
-1.500000	-10.5	3.454977
2.500000	-10.5	6.333855
6.500000	-10.5	14.5515
10.5	-10.5	3.664322
14.5	-10.5	2.069917
18.5	-10.5	6.980703
22.5	-10.5	5.868536
26.5	-10.5	10.6001
30.5	-10.5	1.844420
34.5	-10.5	1.960662
-28	-10	7.179344
-24	-10	5.139638
-20	-10	10.475
-16	-10	19.8086
-12	-10	8.048573
-8.000000	-10	23.624
-4.000000	-10	10.0028
0.000000	-10	17.1873
4.000000	-10	13.4062
8.000000	-10	10.3104
12	-10	7.203494
16	-10	4.506422
20	-10	12.0097
24	-10	14.1814
28	-10	1.456662
32	-10	2.688778
36	-10	52.6379
-26.5	-9.500000	1.385863
-22.5	-9.500000	15.7753
-18.5	-9.500000	13.1106
-14.5	-9.500000	18.3793
-10.5	-9.500000	3.061275
-6.500000	-9.500000	11.4417
-2.500000	-9.500000	11.4131
1.500000	-9.500000	14.9042
5.500000	-9.500000	13.6708
9.500000	-9.500000	11.4784
13.5	-9.500000	4.908739
17.5	-9.500000	1.758249
21.5	-9.500000	9.424124
25.5	-9.500000	18.7983
29.5	-9.500000	1.939457
33.5	-9.500000	9.454612
37.5	-9.500000	18.0438
-25	-9.000000	2.445622
-21	-9.000000	3.158836
-17	-9.000000	28.3595
-13	-9.000000	6.798260
-9.000000	-9.000000	23.5518
-5.000000	-9.000000	17.9291
-1.000000	-9.000000	21.8548
3.000000	-9.000000	21.0999
7.000000	-9.000000	3.900509
11	-9.000000	10.3435
15	-9.000000	7.921808
19	-9.000000	10.2836
23	-9.000000	17.368
27	-9.000000	4.645960
31	-9.000000	0.639747
35	-9.000000	0.666803
-27.5	-8.500000	2.783605
-23.5	-8.500000	19.6443
-19.5	-8.500000	11.4657
-15.5	-8.500000	19.3711
-11.5	-8.500000	4.875086
-7.500000	-8.500000	12.6809
-3.500000	-8.500000	16.3385
0.500000	-8.500000	16.7239
4.500000	-8.500000	15.4244
8.500000	-8.500000	17.7669
12.5	-8.500000	7.467337
16.5	-8.500000	8.103052
20.5	-8.500000	17.1944
24.5	-8.500000	13.9915
28.5	-8.500000	5.043379
32.5	-8.500000	9.712814
36.5	-8.500000	0.816284
-26	-8.000000	0.725863
-22	-8.000000	20.0323
-18	-8.000000	23.9812
-14	-8.000000	18.6944
-10	-8.000000	15.8824
-6.000000	-8.000000	14.1488
-2.000000	-8.000000	8.797424
2.000000	-8.000000	8.953527
6.000000	-8.000000	8.763090
10	-8.000000	10.4695
14	-8.000000	5.838841
18	-8.000000	7.871604
22	-8.000000	16.6499
26	-8.000000	10.7733
30	-8.000000	10.5454
34	-8.000000	11.2857
38	-8.000000	1.413479
-24.5	-7.500000	5.796574
-20.5	-7.500000	19.8165
-16.5	-7.500000	16.3592
-12.5	-7.500000	18.7072
-8.500000	-7.500000	18.8894
-4.500000	-7.500000	16.6232
-0.500000	-7.500000	17.0135
3.500000	-7.500000	16.7925
7.500000	-7.500000	6.992630
11.5	-7.500000	7.229251
15.5	-7.500000	15.3678
19.5	-7.500000	7.484648
23.5	-7.500000	5.683552
27.5	-7.500000	8.109020
31.5	-7.500000	5.725448
35.5	-7.500000	4.255494
-27	-7.000000	2.261145
-23	-7.000000	19.2304
-19	-7.000000	24.6488
-15	-7.000000	8.678943
-11	-7.000000	5.917918
-7.000000	-7.000000	22.1236
-3.000000	-7.000000	7.815646
1.000000	-7.000000	20.7157
5.000000	-7.000000	18.1399
9.000000	-7.000000	8.717872
13	-7.000000	6.194712
17	-7.000000	10.8698
21	-7.000000	16.1229
25	-7.000000	11.7645
29	-7.000000	9.606038
33	-7.000000	11.7969
37	-7.000000	7.622796
-25.5	-6.500000	1.564951
-21.5	-6.500000	24.8474
-17.5	-6.500000	20.7035
-13.5	-6.500000	14.9208
-9.500000	-6.500000	8.474167
-5.500000	-6.500000	13.9085
-1.500000	-6.500000	5.051523
2.500000	-6.500000	8.922608
6.500000	-6.500000	7.015409
10.5	-6.500000	5.309884
14.5	-6.500000	14.2933
18.5	-6.500000	10.5901
22.5	-6.500000	11.9056
26.5	-6.500000	8.246265
30.5	-6.500000	4.575194
34.5	-6.500000	7.181503
-28	-6.000000	6.223705
-24	-6.000000	21.0599
-20	-6.000000	22.7119
-16	-6.000000	16.1936
-12	-6.000000	11.5123
-8.000000	-6.000000	15.3203
-4.000000	-6.000000	13.8926
0.000000	-6.000000	7.676522
4.000000	-6.000000	18.6286
8.000000	-6.000000	12.1632
12	-6.000000	10.7521
16	-6.000000	20.6766
20	-6.000000	12.607
24	-6.000000	12.0563
28	-6.000000	9.388908
32	-6.000000	1.778484
36	-6.000000	1.523570
-26.5	-5.500000	2.183239
-22.5	-5.500000	28.2785
-18.5	-5.500000	16.9385
-14.5	-5.500000	14.2308
-10.5	-5.500000	3.356092
-6.500000	-5.500000	2.587130
-2.500000	-5.500000	5.303910
1.500000	-5.500000	6.051849
5.500000	-5.500000	12.3794
9.500000	-5.500000	11.4979
13.5	-5.500000	21.3317
17.5	-5.500000	17.4425
21.5	-5.500000	9.172137
25.5	-5.500000	7.760682
29.5	-5.500000	5.672235
33.5	-5.500000	8.677501
37.5	-5.500000	11.4532
-25	-5.000000	3.779917
-21	-5.000000	26.009
-17	-5.000000	23.4736
-13	-5.000000	2.005287
-9.000000	-5.000000	5.781015
-5.000000	-5.000000	1.394965
-1.000000	-5.000000	10.0392
3.000000	-5.000000	1.194651
7.000000	-5.000000	3.959081
11	-5.000000	12.6259
15	-5.000000	11.0664
19	-5.000000	6.876829
23	-5.000000	9.760696
27	-5.000000	8.595738
31	-5.000000	6.270357
35	-5.000000	8.465789
-27.5	-4.500000	4.919558
-23.5	-4.500000	9.090484
-19.5	-4.500000	13.9051
-15.5	-4.500000	18.5204
-11.5	-4.500000	0.000000
-7.500000	-4.500000	2.380806
-3.500000	-4.500000	3.997651
0.500000	-4.500000	11.9591
4.500000	-4.500000	2.663012
8.500000	-4.500000	8.691855
12.5	-4.500000	16.1843
16.5	-4.500000	9.684764
20.5	-4.500000	8.814788
24.5	-4.500000	11.4638
28.5	-4.500000	13.3612
32.5	-4.500000	2.622660
36.5	-4.500000	4.034141
-26	-4.000000	2.207931
-22	-4.000000	23.4584
-18	-4.000000	17.792
-14	-4.000000	10.5815
-10	-4.000000	2.756046
-6.000000	-4.000000	1.905042
-2.000000	-4.000000	8.896915
2.000000	-4.000000	6.847346
6.000000	-4.000000	2.046863
10	-4.000000	12.2464
14	-4.000000	14.0878
18	-4.000000	14.5666
22	-4.000000	13.2547
26	-4.000000	4.689497
30	-4.000000	11.4237
34	-4.000000	8.365204
38	-4.000000	12.5944
-24.5	-3.500000	1.872968
-20.5	-3.500000	18.0676
-16.5	-3.500000	8.873233
-12.5	-3.500000	0.000000
-8.500000	-3.500000	1.303339
-4.500000	-3.500000	2.169729
-0.500000	-3.500000	9.301005
3.500000	-3.500000	4.645432
7.500000	-3.500000	1.350178
11.5	-3.500000	12.8787
15.5	-3.500000	9.302517
19.5	-3.500000	8.652235
23.5	-3.500000	14.6931
27.5	-3.500000	12.5464
31.5	-3.500000	0.965376
35.5	-3.500000	4.516551
-27	-3.000000	1.353408
-23	-3.000000	4.230953
-19	-3.000000	6.991690
-15	-3.000000	10.6677
-11	-3.000000	2.640068
-7.000000	-3.000000	2.037981
-3.000000	-3.000000	1.488609
1.000000	-3.000000	16.9916
5.000000	-3.000000	2.476674
9.000000	-3.000000	3.520250
13	-3.000000	9.155727
17	-3.000000	11.9802
21	-3.000000	8.067220
25	-3.000000	11.2718
29	-3.000000	17.8948
33	-3.000000	1.343307
37	-3.000000	4.645566
-25.5	-2.500000	2.487302
-21.5	-2.500000	5.956858
-17.5	-2.500000	11.6814
-13.5	-2.500000	3.942248
-9.500000	-2.500000	4.732442
-5.500000	-2.500000	1.538746
-1.500000	-2.500000	13.1887
2.500000	-2.500000	3.805768
6.500000	-2.500000	3.795181
10.5	-2.500000	14.7581
14.5	-2.500000	10.0804
18.5	-2.500000	8.785848
22.5	-2.500000	8.845890
26.5	-2.500000	6.302060
30.5	-2.500000	2.300710
34.5	-2.500000	10.1059
-28	-2.000000	6.848943
-24	-2.000000	2.203338
-20	-2.000000	0.000000
-16	-2.000000	12.5689
-12	-2.000000	1.667782
-8.000000	-2.000000	3.741267
-4.000000	-2.000000	2.302778
0.000000	-2.000000	9.424010
4.000000	-2.000000	1.183574
8.000000	-2.000000	1.134110
12	-2.000000	8.629314
16	-2.000000	10.9455
20	-2.000000	6.987604
24	-2.000000	13.3768
28	-2.000000	12.3086
32	-2.000000	3.963580
36	-2.000000	8.845196
-26.5	-1.500000	1.211914
-22.5	-1.500000	2.467560
-18.5	-1.500000	6.820598
-14.5	-1.500000	9.004583
-10.5	-1.500000	9.535285
-6.500000	-1.500000	3.010552
-2.500000	-1.500000	4.252089
1.500000	-1.500000	3.082024
5.500000	-1.500000	4.070388
9.500000	-1.500000	12.7181
13.5	-1.500000	8.435755
17.5	-1.500000	12.7749
21.5	-1.500000	6.512325
25.5	-1.500000	9.387410
29.5	-1.500000	9.123965
33.5	-1.500000	2.293397
37.5	-1.500000	10.3111
-25	-1.000000	1.876779
-21	-1.000000	2.675702
-17	-1.000000	12.4904
-13	-1.000000	6.489773
-9.000000	-1.000000	5.464253
-5.000000	-1.000000	2.051704
-1.000000	-1.000000	11.0585
3.000000	-1.000000	1.808186
7.000000	-1.000000	3.589609
11	-1.000000	15.3343
15	-1.000000	11.8686
19	-1.000000	8.902791
23	-1.000000	9.350313
27	-1.000000	11.5645
31	-1.000000	5.660359
35	-1.000000	9.072477
-27.5	-0.500000	3.233279
-23.5	-0.500000	27.1702
-19.5	-0.500000	1.358692
-15.5	-0.500000	8.180003
-11.5	-0.500000	12.7523
-7.500000	-0.500000	2.458797
-3.500000	-0.500000	1.962950
0.500000	-0.500000	4.260634
4.500000	-0.500000	2.442749
8.500000	-0.500000	13.8428
12.5	-0.500000	11.2825
16.5	-0.500000	14.1588
20.5	-0.500000	9.881265
24.5	-0.500000	9.076797
28.5	-0.500000	11.992
32.5	-0.500000	0.000000
36.5	-0.500000	4.915454
-26	0.000000	12.3995
-22	0.000000	3.124054
-18	0.000000	14.2394
-14	0.000000	16.1568
-10	0.000000	13.3602
-6.000000	0.000000	1.697993
-2.000000	0.000000	5.991035
2.000000	0.000000	3.197768
6.000000	0.000000	8.915335
10	0.000000	18.0751
14	0.000000	11.4146
18	0.000000	12.6521
22	0.000000	7.378521
26	0.000000	15.3854
30	0.000000	17.9482
34	0.000000	2.880119
38	0.000000	5.051575
-24.5	0.500000	6.675891
-20.5	0.500000	4.773378
-16.5	0.500000	12.2471
-12.5	0.500000	10.749
-8.500000	0.500000	11.4434
-4.500000	0.500000	2.072137
-0.500000	0.500000	14.8635
3.500000	0.500000	5.329022
7.500000	0.500000	6.907726
11.5	0.500000	11.4329
15.5	0.500000	12.045
19.5	0.500000	12.409
23.5	0.500000	8.841146
27.5	0.500000	5.395202
31.5	0.500000	3.747672
35.5	0.500000	1.863011
-27	1.000000	9.933119
-23	1.000000	18.1726
-19	1.000000	16.6596
-15	1.000000	13.4509
-11	1.000000	15.049
-7.000000	1.000000	1.131243
-3.000000	1.000000	10.2705
1.000000	1.000000	11.914
5.000000	1.000000	17.9303
9.000000	1.000000	9.025618
13	1.000000	6.229689
17	1.000000	11.6995
21	1.000000	7.529135
25	1.000000	12.992
29	1.000000	15.9404
33	1.000000	1.529504
37	1.000000	1.904570
-25.5	1.500000	16.4143
-21.5	1.500000	15.0545
-17.5	1.500000	13.1309
-13.5	1.500000	22.6702
-9.500000	1.500000	13.9462
-5.500000	1.500000	2.582098
-1.500000	1.500000	6.063968
2.500000	1.500000	11.4489
6.500000	1.500000	12.3338
10.5	1.500000	19.096
14.5	1.500000	17.5536
18.5	1.500000	10.2238
22.5	1.500000	8.058808
26.5	1.500000	11.6471
30.5	1.500000	9.200055
34.5	1.500000	18.3821
-28	2.000000	15.6575
-24	2.000000	16.702
-20	2.000000	7.222731
-16	2.000000	14.2793
-12	2.000000	19.8129
-8.000000	2.000000	6.577343
-4.000000	2.000000	3.129376
0.000000	2.000000	9.172953
4.000000	2.000000	7.646139
8.000000	2.000000	5.583634
12	2.000000	12.7098
16	2.000000	9.283784
20	2.000000	13.6067
24	2.000000	8.118831
28	2.000000	15.4136
32	2.000000	3.520192
36	2.000000	4.338862
-26.5	2.500000	6.943383
-22.5	2.500000	20.954
-18.5	2.500000	13.3411
-14.5	2.500000	19.4714
-10.5	2.500000	15.5018
-6.500000	2.500000	2.881738
-2.500000	2.500000	1.319513
1.500000	2.500000	22.8489
5.500000	2.500000	14.1204
9.500000	2.500000	12.3847
13.5	2.500000	17.015
17.5	2.500000	10.2105
21.5	2.500000	4.922526
25.5	2.500000	14.6394
29.5	2.500000	11.1603
33.5	2.500000	1.814674
37.5	2.500000	3.887310
-25	3.000000	8.598501
-21	3.000000	9.786083
-17	3.000000	14.5549
-13	3.000000	17.2121
-9.000000	3.000000	14.4343
-5.000000	3.000000	3.174506
-1.000000	3.000000	0.657660
3.000000	3.000000	14.6089
7.000000	3.000000	16.8838
11	3.000000	12.9016
15	3.000000	17.9285
19	3.000000	10.9874
23	3.000000	9.334287
27	3.000000	14.8125
31	3.000000	5.178176
35	3.000000	0.624391
-27.5	3.500000	14.5712
-23.5	3.500000	16.0059
-19.5	3.500000	17.0716
-15.5	3.500000	15.968
-11.5	3.500000	15.6551
-7.500000	3.500000	9.328832
-3.500000	3.500000	10.5368
0.500000	3.500000	14.6593
4.500000	3.500000	12.6278
8.500000	3.500000	7.041359
12.5	3.500000	14.6733
16.5	3.500000	7.419418
20.5	3.500000	7.454426
24.5	3.500000	10.1931
28.5	3.500000	14.3184
32.5	3.500000	2.615022
36.5	3.500000	16.945
-26	4.000000	18.0039
-22	4.000000	7.510463
-18	4.000000	17.0564
-14	4.000000	15.0613
-10	4.000000	18.9186
-6.000000	4.000000	12.2419
-2.000000	4.000000	9.200456
2.000000	4.000000	13.4163
6.000000	4.000000	21.9156
10	4.000000	17.0874
14	4.000000	15.4047
18	4.000000	8.316575
22	4.000000	10.8278
26	4.000000	12.936
30	4.000000	3.090602
34	4.000000	2.653261
38	4.000000	16.3094
-24.5	4.500000	2.603625
-20.5	4.500000	13.488
-16.5	4.500000	16.5882
-12.5	4.500000	18.7667
-8.500000	4.500000	16.3365
-4.500000	4.500000	11.7279
-0.500000	4.500000	10.6054
3.500000	4.500000	4.860539
7.500000	4.500000	16.3016
11.5	4.500000	12.9117
15.5	4.500000	12.2781
19.5	4.500000	13.1854
23.5	4.500000	8.658805
27.5	4.500000	8.675720
31.5	4.500000	2.810391
35.5	4.500000	13.7125
-27	5.000000	20.2272
-23	5.000000	18.0555
-19	5.000000	10.642
-15	5.000000	23.5501
-11	5.000000	20.1245
-7.000000	5.000000	11.7233
-3.000000	5.000000	6.957242
1.000000	5.000000	17.2711
5.000000	5.000000	9.152448
9.000000	5.000000	11.0118
13	5.000000	21.1366
17	5.000000	11.3878
21	5.000000	9.107585
25	5.000000	5.316950
29	5.000000	16.9026
33	5.000000	4.469276
37	5.000000	10.8734
-25.5	5.500000	6.519873
-21.5	5.500000	5.309009
-17.5	5.500000	21.1743
-13.5	5.500000	16.2117
-9.500000	5.500000	16.3574
-5.500000	5.500000	11.7025
-1.500000	5.500000	12.9328
2.500000	5.500000	9.490873
6.500000	5.500000	7.557827
10.5	5.500000	15.687
14.5	5.500000	12.1006
18.5	5.500000	14.1747
22.5	5.500000	8.503942
26.5	5.500000	7.819549
30.5	5.500000	6.144689
34.5	5.500000	17.5552
-28	6.000000	19.5217
-24	6.000000	3.317878
-20	6.000000	15.597
-16	6.000000	21.3538
-12	6.000000	15.5307
-8.000000	6.000000	30.8423
-4.000000	6.000000	9.142369
0.000000	6.000000	14.9982
4.000000	6.000000	12.3062
8.000000	6.000000	8.864194
12	6.000000	9.370387
16	6.000000	12.8761
20	6.000000	10.9758
24	6.000000	8.351671
28	6.000000	5.021196
32	6.000000	4.341614
36	6.000000	16.8192
-26.5	6.500000	3.862680
-22.5	6.500000	11.0736
-18.5	6.500000	13.9759
-14.5	6.500000	20.2058
-10.5	6.500000	20.2135
-6.500000	6.500000	23.8196
-2.500000	6.500000	9.025816
1.500000	6.500000	18.6391
5.500000	6.500000	10.3294
9.500000	6.500000	11.1714
13.5	6.500000	15.5049
17.5	6.500000	9.413424
21.5	6.500000	8.288516
25.5	6.500000	11.5774
29.5	6.500000	11.8333
33.5	6.500000	17.9225
37.5	6.500000	9.330201
-25	7.000000	0.846587
-21	7.000000	17.8235
-17	7.000000	18.2016
-13	7.000000	20.5051
-9.000000	7.000000	28.2372
-5.000000	7.000000	25.6007
-1.000000	7.000000	8.929403
3.000000	7.000000	12.2223
7.000000	7.000000	8.525842
11	7.000000	5.879961
15	7.000000	13.5221
19	7.000000	10.0423
23	7.000000	10.9119
27	7.000000	9.392669
31	7.000000	10.1369
35	7.000000	15.9753
-27.5	7.500000	1.970936
-23.5	7.500000	3.424862
-19.5	7.500000	16.9828
-15.5	7.500000	23.873
-11.5	7.500000	20.4003
-7.500000	7.500000	23.1639
-3.500000	7.500000	12.5943
0.500000	7.500000	14.9152
4.500000	7.500000	18.9913
8.500000	7.500000	6.415191
12.5	7.500000	13.1172
16.5	7.500000	8.771837
20.5	7.500000	8.990745
24.5	7.500000	5.644948
28.5	7.500000	6.705530
32.5	7.500000	21.0729
36.5	7.500000	16.1603
-26	8.000000	1.662642
-22	8.000000	19.415
-18	8.000000	14.3184
-14	8.000000	27.8534
-10	8.000000	19.5123
-6.000000	8.000000	21.7279
-2.000000	8.000000	15.1053
2.000000	8.000000	10.0814
6.000000	8.000000	12.9247
10	8.000000	8.907574
14	8.000000	16.9472
18	8.000000	5.683110
22	8.000000	6.525907
26	8.000000	11.7476
30	8.000000	13.8343
34	8.000000	10.9644
38	8.000000	19.947
-24.5	8.500000	1.217621
-20.5	8.500000	14.7177
-16.5	8.500000	20.7869
-12.5	8.500000	22.7597
-8.500000	8.500000	20.3757
-4.500000	8.500000	19.5996
-0.500000	8.500000	17.5187
3.500000	8.500000	9.640075
7.500000	8.500000	8.662762
11.5	8.500000	11.0638
15.5	8.500000	11.221
19.5	8.500000	7.471570
23.5	8.500000	9.301862
27.5	8.500000	11.0049
31.5	8.500000	19.7628
35.5	8.500000	20.8132
-27	9.000000	1.697460
-23	9.000000	4.830778
-19	9.000000	12.471
-15	9.000000	30.9726
-11	9.000000	24.7636
-7.000000	9.000000	22.3263
-3.000000	9.000000	14.1729
1.000000	9.000000	21.4917
5.000000	9.000000	6.468462
9.000000	9.000000	18.835
13	9.000000	12.7022
17	9.000000	9.234277
21	9.000000	13.5247
25	9.000000	8.951157
29	9.000000	8.535858
33	9.000000	14.9132
37	9.000000	16.4645
-25.5	9.500000	2.557016
-21.5	9.500000	11.6165
-17.5	9.500000	11.6178
-13.5	9.500000	23.9742
-9.500000	9.500000	18.9477
-5.500000	9.500000	28.1197
-1.500000	9.500000	5.022344
2.500000	9.500000	11.7281
6.500000	9.500000	8.150897
10.5	9.500000	14.676
14.5	9.500000	17.0983
18.5	9.500000	13.2382
22.5	9.500000	5.862066
26.5	9.500000	7.732423
30.5	9.500000	12.9772
34.5	9.500000	16.4934
-28	10	0.000000
-24	10	3.002298
-20	10	15.9849
-16	10	8.520628
-12	10	19.8166
-8.000000	10	23.03
-4.000000	10	26.6197
0.000000	10	7.197435
4.000000	10	2.085535
8.000000	10	11.8804
12	10	19.1469
16	10	7.422612
20	10	10.4232
24	10	7.352462
28	10	7.812880
32	10	17.6135
36	10	15.9911
-26.5	10.5	3.279995
-22.5	10.5	12.9657
-18.5	10.5	6.309935
-14.5	10.5	16.7098
-10.5	10.5	25.5605
-6.500000	10.5	22.0424
-2.500000	10.5	24.34
1.500000	10.5	13.4834
5.500000	10.5	1.069739
9.500000	10.5	7.891442
13.5	10.5	14.8076
17.5	10.5	6.375717
21.5	10.5	19.0825
25.5	10.5	11.2204
29.5	10.5	14.6745
33.5	10.5	14.7273
37.5	10.5	10.7529
-25	11	2.412558
-21	11	3.890112
-17	11	7.426969
-13	11	25.4517
-9.000000	11	26.1037
-5.000000	11	26.3808
-1.000000	11	20.0575
3.000000	11	2.540457
7.000000	11	9.161995
11	11	12.8038
15	11	10.8057
19	11	10.6506
23	11	17.7814
27	11	12.9917
31	11	13.3221
35	11	8.026462
-27.5	11.5	7.315569
-23.5	11.5	2.090718
-19.5	11.5	1.465399
-15.5	11.5	6.080917
-11.5	11.5	14.448
-7.500000	11.5	23.5505
-3.500000	11.5	27.5448
0.500000	11.5	8.920313
4.500000	11.5	1.548391
8.500000	11.5	17.8391
12.5	11.5	19.1778
16.5	11.5	11.6178
20.5	11.5	14.9555
24.5	11.5	8.634877
28.5	11.5	11.7759
32.5	11.5	15.0309
36.5	11.5	15.2002
-26	12	1.514101
-22	12	11.5009
-18	12	0.715693
-14	12	1.110040
-10	12	21.4316
-6.000000	12	26.398
-2.000000	12	17.4726
2.000000	12	6.620253
6.000000	12	1.909715
10	12	9.877210
14	12	10.9156
18	12	12.8458
22	12	16.2106
26	12	16.4642
30	12	13.8235
34	12	19.2195
38	12	17.2114
-24.5	12.5	0.597202
-20.5	12.5	2.636161
-16.5	12.5	2.173291
-12.5	12.5	16.0414
-8.500000	12.5	27.1177
-4.500000	12.5	29.6214
-0.500000	12.5	13.4502
3.500000	12.5	0.729785
7.500000	12.5	11.9888
11.5	12.5	14.9562
15.5	12.5	13.4934
19.5	12.5	14.4193
23.5	12.5	21.3249
27.5	12.5	13.6185
31.5	12.5	16.5769
35.5	12.5	15.7308
-27	13	2.524261
-23	13	0.000000
-19	13	2.225991
-15	13	0.077272
-11	13	18.593
-7.000000	13	19.8813
-3.000000	13	25.4678
1.000000	13	15.0883
5.000000	13	0.371230
9.000000	13	14.8775
13	13	13.1762
17	13	10.9708
21	13	15.7309
25	13	18.44
29	13	13.4386
33	13	18.4756
37	13	21.656
-25.5	13.5	1.457510
-21.5	13.5	1.977313
-17.5	13.5	2.757116
-13.5	13.5	2.179157
-9.500000	13.5	24.3137
-5.500000	13.5	20.2302
-1.500000	13.5	18.6797
2.500000	13.5	0.000000
6.500000	13.5	0.772457
10.5	13.5	16.1917
14.5	13.5	9.868358
18.5	13.5	12.8848
22.5	13.5	19.8944
26.5	13.5	18.493
30.5	13.5	10.0792
34.5	13.5	12.3147
-28	14	0.527894
-24	14	2.420934
-20	14	1.297045
-16	14	0.026882
-12	14	8.488770
-8.000000	14	13.6066
-4.000000	14	18.7078
0.000000	14	14.8623
4.000000	14	1.644975
8.000000	14	10.805
12	14	16.046
16	14	10.8012
20	14	17.7705
24	14	14.3727
28	14	15.7189
32	14	12.9367
36	14	22.3047
-26.5	14.5	2.534688
-22.5	14.5	2.217153
-18.5	14.5	0.865248
-14.5	14.5	0.596013
-10.5	14.5	4.761966
-6.500000	14.5	6.681414
-2.500000	14.5	14.3853
1.500000	14.5	0.535667
5.500000	14.5	1.934070
9.500000	14.5	6.813697
13.5	14.5	8.875359
17.5	14.5	15.1613
21.5	14.5	22.4362
25.5	14.5	20.2081
29.5	14.5	12.3014
33.5	14.5	19.6286
37.5	14.5	15.6158
-25	15	1.886928
-21	15	2.470158
-17	15	1.588796
-13	15	2.429702
-9.000000	15	11.1537
-5.000000	15	2.720294
-1.000000	15	5.259108
3.000000	15	1.535176
7.000000	15	1.240565
11	15	9.034138
15	15	17.2397
19	15	18.2844
23	15	13.4228
27	15	9.229030
31	15	6.820320
35	15	16.2593
-27.5	15.5	1.780585
-23.5	15.5	2.299268
-19.5	15.5	2.074507
-15.5	15.5	2.370900
-11.5	15.5	6.576239
-7.500000	15.5	3.610726
-3.500000	15.5	1.581537
0.500000	15.5	3.278870
4.500000	15.5	6.424461
8.500000	15.5	3.346122
12.5	15.5	9.561804
16.5	15.5	13.5818
20.5	15.5	15.8701
24.5	15.5	20.5448
28.5	15.5	18.2445
32.5	15.5	16.7295
36.5	15.5	2.001700
-26	16	0.600013
-22	16	2.101808
-18	16	14.2492
-14	16	3.529153
-10	16	14.516
-6.000000	16	2.025853
-2.000000	16	1.484312
2.000000	16	4.534476
6.000000	16	1.654028
10	16	15.7408
14	16	16.735
18	16	14.5681
22	16	23.478
26	16	15.8643
30	16	9.711749
34	16	16.9739
38	16	0.859872
-24.5	16.5	0.727566
-20.5	16.5	2.498351
-16.5	16.5	2.478028
-12.5	16.5	4.123328
-8.500000	16.5	5.731207
-4.500000	16.5	2.258608
-0.500000	16.5	0.817454
3.500000	16.5	15.9012
7.500000	16.5	1.401052
11.5	16.5	11.3266
15.5	16.5	5.667208
19.5	16.5	11.5252
23.5	16.5	23.5945
27.5	16.5	15.667
31.5	16.5	1.753425
35.5	16.5	3.635568
-27	17	1.190063
-23	17	2.651554
-19	17	0.385295
-15	17	2.689243
-11	17	19.6603
-7.000000	17	1.818605
-3.000000	17	3.761008
1.000000	17	13.3709
5.000000	17	6.859671
9.000000	17	6.376262
13	17	9.386539
17	17	15.7817
21	17	11.868
25	17	4.053460
29	17	0.000000
33	17	0.000000
37	17	0.000000
-25.5	17.5	21.0541
-21.5	17.5	3.888989
-17.5	17.5	1.546291
-13.5	17.5	2.446560
-9.500000	17.5	7.807587
-5.500000	17.5	1.046548
-1.500000	17.5	1.107655
2.500000	17.5	7.251898
6.500000	17.5	1.175635
10.5	17.5	10.9753
14.5	17.5	12.5216
18.5	17.5	16.0989
22.5	17.5	21.3443
26.5	17.5	2.561867
30.5	17.5	1.838098
34.5	17.5	2.963884
-28	18	0.955603
-24	18	1.533152
-20	18	1.617795
-16	18	2.701771
-12	18	9.237164
-8.000000	18	0.801035
-4.000000	18	2.489571
0.000000	18	3.809686
4.000000	18	8.754498
8.000000	18	2.301712
12	18	18.2582
16	18	13.339
20	18	10.8852
24	18	18.6774
28	18	12.9189
32	18	3.000541
36	18	1.170614
-26.5	18.5	4.792456
-22.5	18.5	1.627937
-18.5	18.5	2.037612
-14.5	18.5	1.318380
-10.5	18.5	10.2943
-6.500000	18.5	15.1656
-2.500000	18.5	2.501020
1.500000	18.5	8.974660
5.500000	18.5	1.057237
9.500000	18.5	2.580054
13.5	18.5	5.340808
17.5	18.5	24.3463
21.5	18.5	27.2788
25.5	18.5	6.068809
29.5	18.5	1.610031
33.5	18.5	8.581125
37.5	18.5	2.270833
-25	19	2.340834
-21	19	3.724221
-17	19	0.599605
-13	19	5.560687
-9.000000	19	5.582542
-5.000000	19	1.984249
-1.000000	19	1.924314
3.000000	19	16.5313
7.000000	19	1.011126
11	19	6.897892
15	19	12.4341
19	19	14.9392
23	19	16.2316
27	19	0.814041
31	19	3.945512
35	19	2.713555
-27.5	19.5	7.410007
-23.5	19.5	2.042506
-19.5	19.5	1.262521
-15.5	19.5	2.465891
-11.5	19.5	2.287999
-7.500000	19.5	1.510642
-3.500000	19.5	18.068
0.500000	19.5	12.2197
4.500000	19.5	1.698505
8.500000	19.5	0.960929
12.5	19.5	7.352270
16.5	19.5	17.7222
20.5	19.5	12.1714
24.5	19.5	0.000000
28.5	19.5	1.952684
32.5	19.5	8.833097
36.5	19.5	3.687325
-26	20	1.358906
-22	20	7.649431
-18	20	0.000000
-14	20	1.742381
-10	20	10.8395
-6.000000	20	12.4096
-2.000000	20	3.655541
2.000000	20	13.1983
6.000000	20	3.155593
10	20	5.898586
14	20	9.254633
18	20	7.816286
22	20	17.4916
26	20	0.447142
30	20	1.115179
34	20	18.3163
38	20	2.208768