File: data/derived_data/raman/20170920_Gr-NH2_for_Radisurf/20170920 Gr-NH for Radisurf map 1/2Dp FWHM.txt
#XList		#YList		#IList
-28	-22	2595.12
-24	-22	203.677
-20	-22	201.296
-16	-22	41.6805
-12	-22	120.118
-8.000000	-22	174.85
-4.000000	-22	116.473
0.000000	-22	121.121
4.000000	-22	244.846
8.000000	-22	122.684
12	-22	131.631
16	-22	76.3467
20	-22	168.673
24	-22	406.612
28	-22	533.905
32	-22	42.6379
36	-22	2035.34
-26.5	-21.5	2595.12
-22.5	-21.5	142.576
-18.5	-21.5	58.3501
-14.5	-21.5	110.051
-10.5	-21.5	107.043
-6.500000	-21.5	55.9713
-2.500000	-21.5	191.539
1.500000	-21.5	213.255
5.500000	-21.5	134.834
9.500000	-21.5	136.771
13.5	-21.5	170.057
17.5	-21.5	123.838
21.5	-21.5	162.114
25.5	-21.5	336.766
29.5	-21.5	250.438
33.5	-21.5	204.963
37.5	-21.5	982.781
-25	-21	104.698
-21	-21	76.7906
-17	-21	119.312
-13	-21	55.363
-9.000000	-21	111.438
-5.000000	-21	141.633
-1.000000	-21	92.0493
3.000000	-21	2045.08
7.000000	-21	92.2266
11	-21	143.625
15	-21	126.873
19	-21	144.362
23	-21	114.796
27	-21	151.268
31	-21	10.6871
35	-21	1871.48
-27.5	-20.5	2466.69
-23.5	-20.5	49.2526
-19.5	-20.5	102.468
-15.5	-20.5	103.893
-11.5	-20.5	126.592
-7.500000	-20.5	124.613
-3.500000	-20.5	173.437
0.500000	-20.5	115.673
4.500000	-20.5	106.313
8.500000	-20.5	71.0359
12.5	-20.5	188.822
16.5	-20.5	292.245
20.5	-20.5	147.649
24.5	-20.5	96.9867
28.5	-20.5	89.8191
32.5	-20.5	2173.13
36.5	-20.5	169.915
-26	-20	2595.12
-22	-20	187.403
-18	-20	98.0668
-14	-20	80.9467
-10	-20	74.9814
-6.000000	-20	192.947
-2.000000	-20	101.938
2.000000	-20	965.667
6.000000	-20	141.106
10	-20	122.18
14	-20	121.132
18	-20	42.8084
22	-20	157.801
26	-20	1260.73
30	-20	129.103
34	-20	2.379016
38	-20	2595.12
-24.5	-19.5	56.2372
-20.5	-19.5	130.074
-16.5	-19.5	66.9105
-12.5	-19.5	2595.12
-8.500000	-19.5	73.5451
-4.500000	-19.5	155.238
-0.500000	-19.5	1686.87
3.500000	-19.5	181.94
7.500000	-19.5	81.5141
11.5	-19.5	154.971
15.5	-19.5	134.094
19.5	-19.5	174.037
23.5	-19.5	129.988
27.5	-19.5	46.2988
31.5	-19.5	106.332
35.5	-19.5	1970.76
-27	-19	1.302683
-23	-19	14.1883
-19	-19	92.6679
-15	-19	93.7874
-11	-19	0.639823
-7.000000	-19	2.081997
-3.000000	-19	90.3721
1.000000	-19	1628.88
5.000000	-19	107.121
9.000000	-19	57.5066
13	-19	73.0511
17	-19	27.0267
21	-19	193.92
25	-19	258.625
29	-19	128.637
33	-19	10.211
37	-19	2595.12
-25.5	-18.5	2595.12
-21.5	-18.5	9.266485
-17.5	-18.5	161.843
-13.5	-18.5	326.983
-9.500000	-18.5	2471.49
-5.500000	-18.5	224.038
-1.500000	-18.5	133.006
2.500000	-18.5	147.421
6.500000	-18.5	119.808
10.5	-18.5	153.02
14.5	-18.5	126.543
18.5	-18.5	111.954
22.5	-18.5	146.029
26.5	-18.5	159.345
30.5	-18.5	182.479
34.5	-18.5	169.145
-28	-18	1708.43
-24	-18	2595.12
-20	-18	942.624
-16	-18	453.02
-12	-18	491.064
-8.000000	-18	198.298
-4.000000	-18	136.623
0.000000	-18	100.059
4.000000	-18	135.427
8.000000	-18	131.058
12	-18	83.5174
16	-18	100.6
20	-18	73.1201
24	-18	54.8573
28	-18	92.644
32	-18	258.406
36	-18	1167.72
-26.5	-17.5	2595.12
-22.5	-17.5	170.308
-18.5	-17.5	22.1876
-14.5	-17.5	65.6296
-10.5	-17.5	907.52
-6.500000	-17.5	375.221
-2.500000	-17.5	156.824
1.500000	-17.5	121.322
5.500000	-17.5	126.148
9.500000	-17.5	105.379
13.5	-17.5	164.144
17.5	-17.5	109.768
21.5	-17.5	164.47
25.5	-17.5	122.108
29.5	-17.5	70.072
33.5	-17.5	2059.94
37.5	-17.5	1084.99
-25	-17	245.411
-21	-17	2418.98
-17	-17	198.106
-13	-17	28.5027
-9.000000	-17	1292.5
-5.000000	-17	103.056
-1.000000	-17	223.482
3.000000	-17	49.5157
7.000000	-17	99.1371
11	-17	71.5028
15	-17	125.018
19	-17	116.517
23	-17	131.286
27	-17	88.7781
31	-17	174.467
35	-17	2595.12
-27.5	-16.5	252.921
-23.5	-16.5	223.563
-19.5	-16.5	89.3664
-15.5	-16.5	101.086
-11.5	-16.5	118.337
-7.500000	-16.5	39.4662
-3.500000	-16.5	131.539
0.500000	-16.5	182.876
4.500000	-16.5	76.8208
8.500000	-16.5	99.5963
12.5	-16.5	174.272
16.5	-16.5	172.02
20.5	-16.5	169.258
24.5	-16.5	141.999
28.5	-16.5	102.221
32.5	-16.5	795.281
36.5	-16.5	1772.02
-26	-16	2595.12
-22	-16	3.012590
-18	-16	244.904
-14	-16	78.7477
-10	-16	131.375
-6.000000	-16	126.879
-2.000000	-16	159.967
2.000000	-16	78.4078
6.000000	-16	150.618
10	-16	86.5192
14	-16	143.624
18	-16	152.537
22	-16	54.6861
26	-16	151.287
30	-16	168.821
34	-16	55.0672
38	-16	272.293
-24.5	-15.5	0.639823
-20.5	-15.5	960.807
-16.5	-15.5	192.835
-12.5	-15.5	144.376
-8.500000	-15.5	134.218
-4.500000	-15.5	107.587
-0.500000	-15.5	33.5489
3.500000	-15.5	109.306
7.500000	-15.5	136.187
11.5	-15.5	106.431
15.5	-15.5	144.174
19.5	-15.5	111.664
23.5	-15.5	1548.09
27.5	-15.5	99.849
31.5	-15.5	138.108
35.5	-15.5	158.983
-27	-15	239.44
-23	-15	282.041
-19	-15	154.413
-15	-15	158.793
-11	-15	93.696
-7.000000	-15	144.271
-3.000000	-15	99.1358
1.000000	-15	110.042
5.000000	-15	98.369
9.000000	-15	110.052
13	-15	207.721
17	-15	89.3752
21	-15	102.41
25	-15	10.5981
29	-15	87.0956
33	-15	642.48
37	-15	117.148
-25.5	-14.5	1028.28
-21.5	-14.5	2595.12
-17.5	-14.5	143.814
-13.5	-14.5	138.741
-9.500000	-14.5	117.871
-5.500000	-14.5	75.8064
-1.500000	-14.5	158.255
2.500000	-14.5	141.852
6.500000	-14.5	154.604
10.5	-14.5	120.684
14.5	-14.5	131.72
18.5	-14.5	7.588574
22.5	-14.5	52.5114
26.5	-14.5	1260.42
30.5	-14.5	126.288
34.5	-14.5	12.8814
-28	-14	2595.12
-24	-14	2595.12
-20	-14	27.4236
-16	-14	147.505
-12	-14	146.816
-8.000000	-14	89.3125
-4.000000	-14	97.6024
0.000000	-14	126.318
4.000000	-14	41.602
8.000000	-14	108.448
12	-14	85.9765
16	-14	108.76
20	-14	7.574003
24	-14	136.591
28	-14	117.96
32	-14	117.498
36	-14	136.541
-26.5	-13.5	954.325
-22.5	-13.5	2506.71
-18.5	-13.5	18.3276
-14.5	-13.5	118.516
-10.5	-13.5	36.5236
-6.500000	-13.5	145.642
-2.500000	-13.5	123.986
1.500000	-13.5	132.092
5.500000	-13.5	78.1368
9.500000	-13.5	57.3013
13.5	-13.5	89.7385
17.5	-13.5	96.7291
21.5	-13.5	2595.12
25.5	-13.5	106.103
29.5	-13.5	109.278
33.5	-13.5	121.813
37.5	-13.5	17.0035
-25	-13	255.643
-21	-13	30.2564
-17	-13	130.697
-13	-13	105.796
-9.000000	-13	116.835
-5.000000	-13	127.731
-1.000000	-13	81.0024
3.000000	-13	101.078
7.000000	-13	138.187
11	-13	153.12
15	-13	43.9628
19	-13	183.742
23	-13	118.403
27	-13	81.8416
31	-13	1388.23
35	-13	93.7673
-27.5	-12.5	226.989
-23.5	-12.5	2595.12
-19.5	-12.5	109.172
-15.5	-12.5	0.639823
-11.5	-12.5	69.9764
-7.500000	-12.5	119.314
-3.500000	-12.5	69.7766
0.500000	-12.5	132.965
4.500000	-12.5	45.7791
8.500000	-12.5	21.9333
12.5	-12.5	316.396
16.5	-12.5	0.639823
20.5	-12.5	89.6825
24.5	-12.5	163.641
28.5	-12.5	103.826
32.5	-12.5	1730.03
36.5	-12.5	98.4588
-26	-12	94.0012
-22	-12	2472.67
-18	-12	126.938
-14	-12	126.829
-10	-12	163.843
-6.000000	-12	121.648
-2.000000	-12	57.3347
2.000000	-12	97.376
6.000000	-12	62.1303
10	-12	1707.21
14	-12	2100.3
18	-12	40.4758
22	-12	1230.79
26	-12	77.9406
30	-12	138.471
34	-12	103.645
38	-12	124.973
-24.5	-11.5	2595.12
-20.5	-11.5	1735.42
-16.5	-11.5	106.454
-12.5	-11.5	72.9708
-8.500000	-11.5	106.572
-4.500000	-11.5	142.838
-0.500000	-11.5	101.026
3.500000	-11.5	91.945
7.500000	-11.5	142.299
11.5	-11.5	1119.03
15.5	-11.5	196.391
19.5	-11.5	37.1948
23.5	-11.5	137.741
27.5	-11.5	1913.53
31.5	-11.5	20.3315
35.5	-11.5	86.132
-27	-11	1587.48
-23	-11	504.288
-19	-11	114.781
-15	-11	136.744
-11	-11	84.1205
-7.000000	-11	102.296
-3.000000	-11	140.145
1.000000	-11	119.364
5.000000	-11	143.874
9.000000	-11	170.72
13	-11	1786.13
17	-11	37.5146
21	-11	109.63
25	-11	124.422
29	-11	426.686
33	-11	2160.45
37	-11	16.1741
-25.5	-10.5	187.151
-21.5	-10.5	589.425
-17.5	-10.5	96.37
-13.5	-10.5	144.538
-9.500000	-10.5	130.906
-5.500000	-10.5	142.977
-1.500000	-10.5	194.16
2.500000	-10.5	118.924
6.500000	-10.5	156.731
10.5	-10.5	47.2599
14.5	-10.5	1034.31
18.5	-10.5	99.7177
22.5	-10.5	150.018
26.5	-10.5	79.4908
30.5	-10.5	44.5291
34.5	-10.5	1767.62
-28	-10	61.8984
-24	-10	536.299
-20	-10	105.925
-16	-10	97.0719
-12	-10	148.604
-8.000000	-10	228.527
-4.000000	-10	141.288
0.000000	-10	167.077
4.000000	-10	150.084
8.000000	-10	124.057
12	-10	55.2764
16	-10	2136.87
20	-10	89.3483
24	-10	104.959
28	-10	2314.12
32	-10	1549.8
36	-10	0.639823
-26.5	-9.500000	1100.78
-22.5	-9.500000	105.728
-18.5	-9.500000	181.56
-14.5	-9.500000	112.796
-10.5	-9.500000	71.8543
-6.500000	-9.500000	139.051
-2.500000	-9.500000	130.019
1.500000	-9.500000	156.715
5.500000	-9.500000	151.151
9.500000	-9.500000	131.504
13.5	-9.500000	46.2773
17.5	-9.500000	294.91
21.5	-9.500000	112.098
25.5	-9.500000	131.481
29.5	-9.500000	2595.12
33.5	-9.500000	98.0818
37.5	-9.500000	13.1401
-25	-9.000000	601.595
-21	-9.000000	270.366
-17	-9.000000	1.683658
-13	-9.000000	204.173
-9.000000	-9.000000	126.368
-5.000000	-9.000000	176.888
-1.000000	-9.000000	100.813
3.000000	-9.000000	144.377
7.000000	-9.000000	170.065
11	-9.000000	95.6146
15	-9.000000	0.639823
19	-9.000000	193.717
23	-9.000000	108.06
27	-9.000000	180.144
31	-9.000000	1542.57
35	-9.000000	288.943
-27.5	-8.500000	252.269
-23.5	-8.500000	137.223
-19.5	-8.500000	87.4981
-15.5	-8.500000	148.689
-11.5	-8.500000	126.932
-7.500000	-8.500000	219.859
-3.500000	-8.500000	174.443
0.500000	-8.500000	134.959
4.500000	-8.500000	184.635
8.500000	-8.500000	190.562
12.5	-8.500000	59.7835
16.5	-8.500000	166.964
20.5	-8.500000	174.697
24.5	-8.500000	136.419
28.5	-8.500000	37.9008
32.5	-8.500000	72.4536
36.5	-8.500000	24.8079
-26	-8.000000	2595.12
-22	-8.000000	164.113
-18	-8.000000	159.721
-14	-8.000000	132.003
-10	-8.000000	136.367
-6.000000	-8.000000	136.527
-2.000000	-8.000000	104.941
2.000000	-8.000000	103.06
6.000000	-8.000000	477.144
10	-8.000000	156.502
14	-8.000000	92.1302
18	-8.000000	100.315
22	-8.000000	99.1036
26	-8.000000	139.125
30	-8.000000	134.493
34	-8.000000	117.4
38	-8.000000	2595.12
-24.5	-7.500000	117.237
-20.5	-7.500000	136.511
-16.5	-7.500000	133.703
-12.5	-7.500000	169.005
-8.500000	-7.500000	155.273
-4.500000	-7.500000	166.226
-0.500000	-7.500000	158.569
3.500000	-7.500000	128.051
7.500000	-7.500000	134.229
11.5	-7.500000	64.6676
15.5	-7.500000	161.937
19.5	-7.500000	116.818
23.5	-7.500000	70.6015
27.5	-7.500000	134.5
31.5	-7.500000	118.181
35.5	-7.500000	106.012
-27	-7.000000	3.037198
-23	-7.000000	126.958
-19	-7.000000	103.354
-15	-7.000000	116.71
-11	-7.000000	86.4292
-7.000000	-7.000000	186.42
-3.000000	-7.000000	92.9617
1.000000	-7.000000	158.645
5.000000	-7.000000	20.2005
9.000000	-7.000000	107.747
13	-7.000000	105.112
17	-7.000000	108.347
21	-7.000000	178.414
25	-7.000000	102.855
29	-7.000000	247.754
33	-7.000000	157.982
37	-7.000000	106.943
-25.5	-6.500000	2595.12
-21.5	-6.500000	136.041
-17.5	-6.500000	155.105
-13.5	-6.500000	120.94
-9.500000	-6.500000	34.4878
-5.500000	-6.500000	113.831
-1.500000	-6.500000	133.422
2.500000	-6.500000	119.572
6.500000	-6.500000	136.716
10.5	-6.500000	121.072
14.5	-6.500000	173.703
18.5	-6.500000	163.678
22.5	-6.500000	169.979
26.5	-6.500000	107.615
30.5	-6.500000	108.476
34.5	-6.500000	94.3739
-28	-6.000000	96.2615
-24	-6.000000	222.686
-20	-6.000000	134.424
-16	-6.000000	127.487
-12	-6.000000	102.625
-8.000000	-6.000000	166.271
-4.000000	-6.000000	112.66
0.000000	-6.000000	60.6652
4.000000	-6.000000	108.892
8.000000	-6.000000	160.561
12	-6.000000	124.204
16	-6.000000	151.648
20	-6.000000	185.88
24	-6.000000	125.831
28	-6.000000	130.14
32	-6.000000	3.453346
36	-6.000000	50.5872
-26.5	-5.500000	150.342
-22.5	-5.500000	117.218
-18.5	-5.500000	157.774
-14.5	-5.500000	117.924
-10.5	-5.500000	195.092
-6.500000	-5.500000	92.4796
-2.500000	-5.500000	113.757
1.500000	-5.500000	75.2774
5.500000	-5.500000	156.841
9.500000	-5.500000	104.771
13.5	-5.500000	186.872
17.5	-5.500000	143.749
21.5	-5.500000	169.317
25.5	-5.500000	104.457
29.5	-5.500000	109.058
33.5	-5.500000	56.8711
37.5	-5.500000	89.0913
-25	-5.000000	1276.74
-21	-5.000000	166.586
-17	-5.000000	156.302
-13	-5.000000	323.13
-9.000000	-5.000000	5.659247
-5.000000	-5.000000	793.299
-1.000000	-5.000000	119.612
3.000000	-5.000000	101.711
7.000000	-5.000000	102.219
11	-5.000000	109.983
15	-5.000000	125.33
19	-5.000000	105.878
23	-5.000000	140.984
27	-5.000000	110.838
31	-5.000000	40.5803
35	-5.000000	64.7976
-27.5	-4.500000	428.16
-23.5	-4.500000	91.4819
-19.5	-4.500000	143.891
-15.5	-4.500000	157.577
-11.5	-4.500000	219.345
-7.500000	-4.500000	171.642
-3.500000	-4.500000	1651.12
0.500000	-4.500000	130.581
4.500000	-4.500000	19.7681
8.500000	-4.500000	109.743
12.5	-4.500000	148.237
16.5	-4.500000	90.1836
20.5	-4.500000	62.4392
24.5	-4.500000	119.032
28.5	-4.500000	140.954
32.5	-4.500000	31.4861
36.5	-4.500000	113.946
-26	-4.000000	2288.56
-22	-4.000000	114.903
-18	-4.000000	138.351
-14	-4.000000	18.9998
-10	-4.000000	2595.12
-6.000000	-4.000000	45.4421
-2.000000	-4.000000	24.5194
2.000000	-4.000000	96.4815
6.000000	-4.000000	184.982
10	-4.000000	85.8529
14	-4.000000	203.487
18	-4.000000	163.261
22	-4.000000	182.757
26	-4.000000	1.036431
30	-4.000000	24.3359
34	-4.000000	68.7428
38	-4.000000	153.643
-24.5	-3.500000	2595.12
-20.5	-3.500000	165.438
-16.5	-3.500000	91.2039
-12.5	-3.500000	0.639823
-8.500000	-3.500000	2344.28
-4.500000	-3.500000	2595.12
-0.500000	-3.500000	55.3637
3.500000	-3.500000	123.015
7.500000	-3.500000	134.335
11.5	-3.500000	40.5058
15.5	-3.500000	154.998
19.5	-3.500000	103.086
23.5	-3.500000	120.143
27.5	-3.500000	158.586
31.5	-3.500000	1254.77
35.5	-3.500000	144.74
-27	-3.000000	397.971
-23	-3.000000	20.5861
-19	-3.000000	131.608
-15	-3.000000	133.809
-11	-3.000000	826.307
-7.000000	-3.000000	2595.12
-3.000000	-3.000000	998.954
1.000000	-3.000000	106.196
5.000000	-3.000000	119.225
9.000000	-3.000000	52.027
13	-3.000000	135.159
17	-3.000000	174.72
21	-3.000000	120.615
25	-3.000000	178.768
29	-3.000000	152.299
33	-3.000000	2026.86
37	-3.000000	113.402
-25.5	-2.500000	643.658
-21.5	-2.500000	13.0194
-17.5	-2.500000	127.82
-13.5	-2.500000	87.3182
-9.500000	-2.500000	1114.3
-5.500000	-2.500000	1423.01
-1.500000	-2.500000	105.432
2.500000	-2.500000	111.3
6.500000	-2.500000	67.0702
10.5	-2.500000	170.41
14.5	-2.500000	151.207
18.5	-2.500000	103.2
22.5	-2.500000	87.802
26.5	-2.500000	59.2537
30.5	-2.500000	2010.17
34.5	-2.500000	113.016
-28	-2.000000	102.98
-24	-2.000000	2595.12
-20	-2.000000	87.7468
-16	-2.000000	179.992
-12	-2.000000	302.75
-8.000000	-2.000000	110.001
-4.000000	-2.000000	2484.68
0.000000	-2.000000	100.72
4.000000	-2.000000	952.016
8.000000	-2.000000	104.8
12	-2.000000	132.915
16	-2.000000	127.553
20	-2.000000	122.901
24	-2.000000	153.745
28	-2.000000	123.433
32	-2.000000	264.803
36	-2.000000	50.6649
-26.5	-1.500000	189.878
-22.5	-1.500000	2595.12
-18.5	-1.500000	68.7241
-14.5	-1.500000	126.038
-10.5	-1.500000	68.1163
-6.500000	-1.500000	2595.12
-2.500000	-1.500000	1028.31
1.500000	-1.500000	84.7157
5.500000	-1.500000	103.132
9.500000	-1.500000	115.952
13.5	-1.500000	118.888
17.5	-1.500000	276.768
21.5	-1.500000	178.39
25.5	-1.500000	131.636
29.5	-1.500000	174.968
33.5	-1.500000	337.858
37.5	-1.500000	80.3902
-25	-1.000000	2036.46
-21	-1.000000	805.603
-17	-1.000000	150.996
-13	-1.000000	61.3743
-9.000000	-1.000000	95.9638
-5.000000	-1.000000	2568.98
-1.000000	-1.000000	144.501
3.000000	-1.000000	2449.65
7.000000	-1.000000	101.154
11	-1.000000	148.687
15	-1.000000	223.836
19	-1.000000	174.427
23	-1.000000	189.644
27	-1.000000	118.903
31	-1.000000	158.617
35	-1.000000	109.764
-27.5	-0.500000	144.079
-23.5	-0.500000	1.550698
-19.5	-0.500000	74.7828
-15.5	-0.500000	152.455
-11.5	-0.500000	102.197
-7.500000	-0.500000	134.672
-3.500000	-0.500000	79.8438
0.500000	-0.500000	131.8
4.500000	-0.500000	104.329
8.500000	-0.500000	81.1634
12.5	-0.500000	149.492
16.5	-0.500000	169.513
20.5	-0.500000	146.837
24.5	-0.500000	155.319
28.5	-0.500000	136.842
32.5	-0.500000	148.556
36.5	-0.500000	82.2794
-26	0.000000	154.726
-22	0.000000	1488.07
-18	0.000000	163.959
-14	0.000000	137.041
-10	0.000000	94.6322
-6.000000	0.000000	127.454
-2.000000	0.000000	66.4463
2.000000	0.000000	2509.92
6.000000	0.000000	127.092
10	0.000000	120.385
14	0.000000	176.07
18	0.000000	129.893
22	0.000000	91.6971
26	0.000000	190.979
30	0.000000	148.712
34	0.000000	1001.49
38	0.000000	93.3208
-24.5	0.500000	93.1663
-20.5	0.500000	1682.26
-16.5	0.500000	105.373
-12.5	0.500000	130.693
-8.500000	0.500000	127.132
-4.500000	0.500000	2595.12
-0.500000	0.500000	141.841
3.500000	0.500000	105.22
7.500000	0.500000	161.593
11.5	0.500000	89.8156
15.5	0.500000	100.456
19.5	0.500000	117.159
23.5	0.500000	126.573
27.5	0.500000	117.912
31.5	0.500000	44.2369
35.5	0.500000	2327.95
-27	1.000000	125.747
-23	1.000000	127.19
-19	1.000000	105.386
-15	1.000000	110.556
-11	1.000000	150.78
-7.000000	1.000000	2434.68
-3.000000	1.000000	43.4239
1.000000	1.000000	197.382
5.000000	1.000000	183.275
9.000000	1.000000	58.9532
13	1.000000	168.365
17	1.000000	215.397
21	1.000000	125.496
25	1.000000	136.991
29	1.000000	157.092
33	1.000000	2595.12
37	1.000000	516.736
-25.5	1.500000	142.2
-21.5	1.500000	134.55
-17.5	1.500000	151.077
-13.5	1.500000	205.772
-9.500000	1.500000	173.044
-5.500000	1.500000	1702.37
-1.500000	1.500000	99.6658
2.500000	1.500000	76.4908
6.500000	1.500000	190.377
10.5	1.500000	148.455
14.5	1.500000	203.248
18.5	1.500000	95.2076
22.5	1.500000	103.597
26.5	1.500000	134.318
30.5	1.500000	122.888
34.5	1.500000	0.645221
-28	2.000000	132.793
-24	2.000000	132.913
-20	2.000000	192.72
-16	2.000000	127.787
-12	2.000000	160.047
-8.000000	2.000000	115.558
-4.000000	2.000000	676.284
0.000000	2.000000	109.52
4.000000	2.000000	147.533
8.000000	2.000000	55.1507
12	2.000000	149.187
16	2.000000	85.7708
20	2.000000	255.897
24	2.000000	155.882
28	2.000000	136.745
32	2.000000	1889.31
36	2.000000	1334.71
-26.5	2.500000	105.65
-22.5	2.500000	142.964
-18.5	2.500000	159.142
-14.5	2.500000	193.219
-10.5	2.500000	153.581
-6.500000	2.500000	103.122
-2.500000	2.500000	1302.17
1.500000	2.500000	164.686
5.500000	2.500000	122.379
9.500000	2.500000	98.9434
13.5	2.500000	151.497
17.5	2.500000	119.334
21.5	2.500000	114.914
25.5	2.500000	164.042
29.5	2.500000	128.552
33.5	2.500000	2595.12
37.5	2.500000	289.36
-25	3.000000	58.9157
-21	3.000000	64.7475
-17	3.000000	164.01
-13	3.000000	186.095
-9.000000	3.000000	224.915
-5.000000	3.000000	147.854
-1.000000	3.000000	174.58
3.000000	3.000000	114.123
7.000000	3.000000	176.474
11	3.000000	133.834
15	3.000000	189.321
19	3.000000	148.776
23	3.000000	133.203
27	3.000000	151.977
31	3.000000	94.685
35	3.000000	2184.68
-27.5	3.500000	162.165
-23.5	3.500000	139.106
-19.5	3.500000	174.008
-15.5	3.500000	156.551
-11.5	3.500000	163.082
-7.500000	3.500000	230.821
-3.500000	3.500000	145.609
0.500000	3.500000	130.338
4.500000	3.500000	173.238
8.500000	3.500000	100.54
12.5	3.500000	110.666
16.5	3.500000	57.2828
20.5	3.500000	145.089
24.5	3.500000	132.503
28.5	3.500000	166.782
32.5	3.500000	1548.74
36.5	3.500000	202.605
-26	4.000000	171.671
-22	4.000000	49.809
-18	4.000000	135.45
-14	4.000000	129.292
-10	4.000000	177.53
-6.000000	4.000000	264.917
-2.000000	4.000000	174.545
2.000000	4.000000	185.376
6.000000	4.000000	154.594
10	4.000000	138.046
14	4.000000	103.604
18	4.000000	140.021
22	4.000000	152.869
26	4.000000	174.919
30	4.000000	74.5856
34	4.000000	1655.94
38	4.000000	109.354
-24.5	4.500000	33.366
-20.5	4.500000	0.639823
-16.5	4.500000	106.58
-12.5	4.500000	123.395
-8.500000	4.500000	172.645
-4.500000	4.500000	140.478
-0.500000	4.500000	151.628
3.500000	4.500000	117.153
7.500000	4.500000	163.318
11.5	4.500000	153.877
15.5	4.500000	138.614
19.5	4.500000	155.876
23.5	4.500000	80.4962
27.5	4.500000	66.4544
31.5	4.500000	1707.28
35.5	4.500000	167.111
-27	5.000000	121.976
-23	5.000000	130.518
-19	5.000000	82.0536
-15	5.000000	141.223
-11	5.000000	123.523
-7.000000	5.000000	204.399
-3.000000	5.000000	23.4591
1.000000	5.000000	155.118
5.000000	5.000000	106.323
9.000000	5.000000	114.12
13	5.000000	177.162
17	5.000000	71.2155
21	5.000000	120.734
25	5.000000	63.3891
29	5.000000	290.833
33	5.000000	156.294
37	5.000000	161.02
-25.5	5.500000	85.403
-21.5	5.500000	111.932
-17.5	5.500000	133.911
-13.5	5.500000	187.958
-9.500000	5.500000	116.49
-5.500000	5.500000	287.165
-1.500000	5.500000	109.147
2.500000	5.500000	70.6415
6.500000	5.500000	152.24
10.5	5.500000	137.413
14.5	5.500000	105.187
18.5	5.500000	156.897
22.5	5.500000	140.825
26.5	5.500000	46.5412
30.5	5.500000	104.975
34.5	5.500000	121.015
-28	6.000000	176.526
-24	6.000000	39.1196
-20	6.000000	128.158
-16	6.000000	150.094
-12	6.000000	125.7
-8.000000	6.000000	127.926
-4.000000	6.000000	93.3299
0.000000	6.000000	152.063
4.000000	6.000000	110.432
8.000000	6.000000	139.267
12	6.000000	134.156
16	6.000000	141.948
20	6.000000	86.5857
24	6.000000	174.304
28	6.000000	172.569
32	6.000000	209.525
36	6.000000	159.804
-26.5	6.500000	88.6926
-22.5	6.500000	141.851
-18.5	6.500000	180.219
-14.5	6.500000	151.478
-10.5	6.500000	136.67
-6.500000	6.500000	185.988
-2.500000	6.500000	131.783
1.500000	6.500000	158.874
5.500000	6.500000	115.333
9.500000	6.500000	138.579
13.5	6.500000	105.25
17.5	6.500000	119.033
21.5	6.500000	82.3325
25.5	6.500000	135.57
29.5	6.500000	150.036
33.5	6.500000	182.311
37.5	6.500000	109.845
-25	7.000000	884.012
-21	7.000000	151.403
-17	7.000000	143.792
-13	7.000000	157.075
-9.000000	7.000000	150.891
-5.000000	7.000000	175.772
-1.000000	7.000000	132.465
3.000000	7.000000	105.548
7.000000	7.000000	119.22
11	7.000000	130.528
15	7.000000	107.626
19	7.000000	106.489
23	7.000000	130.632
27	7.000000	166.315
31	7.000000	199.403
35	7.000000	190.529
-27.5	7.500000	60.4287
-23.5	7.500000	337.683
-19.5	7.500000	147.53
-15.5	7.500000	150.803
-11.5	7.500000	195.894
-7.500000	7.500000	164.162
-3.500000	7.500000	127.787
0.500000	7.500000	94.6826
4.500000	7.500000	93.3732
8.500000	7.500000	108.126
12.5	7.500000	93.4495
16.5	7.500000	151.915
20.5	7.500000	109.545
24.5	7.500000	84.3163
28.5	7.500000	44.0899
32.5	7.500000	228.266
36.5	7.500000	181.815
-26	8.000000	101.037
-22	8.000000	116.293
-18	8.000000	130.775
-14	8.000000	116.609
-10	8.000000	179.654
-6.000000	8.000000	114.996
-2.000000	8.000000	108.756
2.000000	8.000000	30.6089
6.000000	8.000000	108.478
10	8.000000	123.254
14	8.000000	115.372
18	8.000000	109.859
22	8.000000	73.8092
26	8.000000	126.263
30	8.000000	127.039
34	8.000000	146.656
38	8.000000	163.696
-24.5	8.500000	83.8087
-20.5	8.500000	138.456
-16.5	8.500000	111.858
-12.5	8.500000	161.119
-8.500000	8.500000	140.798
-4.500000	8.500000	116.942
-0.500000	8.500000	104.457
3.500000	8.500000	66.4939
7.500000	8.500000	148.39
11.5	8.500000	153.616
15.5	8.500000	114.836
19.5	8.500000	97.3849
23.5	8.500000	123.501
27.5	8.500000	144.113
31.5	8.500000	143.194
35.5	8.500000	134.033
-27	9.000000	2058.34
-23	9.000000	128.346
-19	9.000000	143.505
-15	9.000000	165.099
-11	9.000000	171.563
-7.000000	9.000000	160.033
-3.000000	9.000000	132.46
1.000000	9.000000	135.564
5.000000	9.000000	67.516
9.000000	9.000000	184.202
13	9.000000	154.425
17	9.000000	87.1286
21	9.000000	114.468
25	9.000000	106.865
29	9.000000	129.591
33	9.000000	153.98
37	9.000000	171.226
-25.5	9.500000	1700.26
-21.5	9.500000	114.148
-17.5	9.500000	143.687
-13.5	9.500000	104.182
-9.500000	9.500000	100.403
-5.500000	9.500000	193.678
-1.500000	9.500000	380.645
2.500000	9.500000	45.5809
6.500000	9.500000	77.4105
10.5	9.500000	142.3
14.5	9.500000	151.909
18.5	9.500000	201.898
22.5	9.500000	118.981
26.5	9.500000	159.314
30.5	9.500000	152.235
34.5	9.500000	192.279
-28	10	42.1937
-24	10	84.0129
-20	10	100.101
-16	10	70.7692
-12	10	158.52
-8.000000	10	135.113
-4.000000	10	136.556
0.000000	10	104.765
4.000000	10	522.608
8.000000	10	156.859
12	10	158.76
16	10	67.3414
20	10	146.126
24	10	144.098
28	10	59.5277
32	10	173.619
36	10	164.636
-26.5	10.5	1833.9
-22.5	10.5	94.5243
-18.5	10.5	16.7972
-14.5	10.5	123.729
-10.5	10.5	190.239
-6.500000	10.5	136.181
-2.500000	10.5	119.339
1.500000	10.5	129.173
5.500000	10.5	2437.86
9.500000	10.5	189.365
13.5	10.5	130.657
17.5	10.5	96.7308
21.5	10.5	112.092
25.5	10.5	148.733
29.5	10.5	144.879
33.5	10.5	144.02
37.5	10.5	82.3632
-25	11	1851.27
-21	11	59.4394
-17	11	82.0239
-13	11	122.387
-9.000000	11	145.367
-5.000000	11	124.342
-1.000000	11	161.096
3.000000	11	18.6001
7.000000	11	92.7287
11	11	148.974
15	11	82.7563
19	11	131.179
23	11	200.262
27	11	172.098
31	11	78.5768
35	11	147.107
-27.5	11.5	73.2346
-23.5	11.5	31.5548
-19.5	11.5	255.577
-15.5	11.5	19.5828
-11.5	11.5	118.801
-7.500000	11.5	178.792
-3.500000	11.5	165.168
0.500000	11.5	28.7435
4.500000	11.5	404.845
8.500000	11.5	134.351
12.5	11.5	117.244
16.5	11.5	161.707
20.5	11.5	115.735
24.5	11.5	94.5506
28.5	11.5	158.985
32.5	11.5	126.209
36.5	11.5	117.286
-26	12	2595.12
-22	12	94.7825
-18	12	2475.19
-14	12	302.899
-10	12	153.575
-6.000000	12	146.754
-2.000000	12	131.151
2.000000	12	100.787
6.000000	12	2398.86
10	12	61.3677
14	12	27.0881
18	12	139.804
22	12	149.507
26	12	112.804
30	12	48.6093
34	12	147.184
38	12	128.74
-24.5	12.5	1060.48
-20.5	12.5	2595.12
-16.5	12.5	335.515
-12.5	12.5	156.181
-8.500000	12.5	103.963
-4.500000	12.5	146.155
-0.500000	12.5	76.181
3.500000	12.5	2570.39
7.500000	12.5	76.0327
11.5	12.5	132.465
15.5	12.5	162.851
19.5	12.5	174.793
23.5	12.5	202.587
27.5	12.5	132.756
31.5	12.5	115.221
35.5	12.5	138.139
-27	13	2595.12
-23	13	47.6921
-19	13	116.491
-15	13	541.411
-11	13	109.382
-7.000000	13	158.962
-3.000000	13	151.891
1.000000	13	65.6381
5.000000	13	2116.82
9.000000	13	137.55
13	13	128.712
17	13	154.962
21	13	186.563
25	13	234.179
29	13	82.5484
33	13	143.57
37	13	115.165
-25.5	13.5	44.7606
-21.5	13.5	123.52
-17.5	13.5	1817.87
-13.5	13.5	56.5788
-9.500000	13.5	161.19
-5.500000	13.5	175.53
-1.500000	13.5	150.055
2.500000	13.5	0.639823
6.500000	13.5	70.2599
10.5	13.5	29.5386
14.5	13.5	143.309
18.5	13.5	130.447
22.5	13.5	183.075
26.5	13.5	156.178
30.5	13.5	48.1105
34.5	13.5	117.082
-28	14	119.018
-24	14	2595.12
-20	14	2595.12
-16	14	388.186
-12	14	122.418
-8.000000	14	129.597
-4.000000	14	133.839
0.000000	14	89.39
4.000000	14	2595.12
8.000000	14	0.639823
12	14	123.234
16	14	153.422
20	14	125.998
24	14	145.624
28	14	173.095
32	14	147.968
36	14	150.576
-26.5	14.5	60.0407
-22.5	14.5	23.6257
-18.5	14.5	1562.02
-14.5	14.5	1504.41
-10.5	14.5	57.5205
-6.500000	14.5	82.1804
-2.500000	14.5	123.427
1.500000	14.5	0.639823
5.500000	14.5	2595.12
9.500000	14.5	43.4388
13.5	14.5	149.68
17.5	14.5	119.315
21.5	14.5	164.477
25.5	14.5	149.877
29.5	14.5	141.117
33.5	14.5	131.247
37.5	14.5	111.851
-25	15	2595.12
-21	15	2086.74
-17	15	817.788
-13	15	249.764
-9.000000	15	133.885
-5.000000	15	1788.94
-1.000000	15	48.8442
3.000000	15	376.788
7.000000	15	2595.12
11	15	119.689
15	15	117.015
19	15	133.04
23	15	127.862
27	15	110.632
31	15	108.733
35	15	123.576
-27.5	15.5	2595.12
-23.5	15.5	76.9093
-19.5	15.5	186.659
-15.5	15.5	51.8084
-11.5	15.5	106.062
-7.500000	15.5	2281.83
-3.500000	15.5	2595.12
0.500000	15.5	103.846
4.500000	15.5	59.5026
8.500000	15.5	525.449
12.5	15.5	108.207
16.5	15.5	101.176
20.5	15.5	183.834
24.5	15.5	140.124
28.5	15.5	145.153
32.5	15.5	97.1084
36.5	15.5	60.3508
-26	16	2595.12
-22	16	296.888
-18	16	0.871928
-14	16	2595.12
-10	16	160.087
-6.000000	16	2595.12
-2.000000	16	206.126
2.000000	16	90.2117
6.000000	16	2595.12
10	16	125.477
14	16	176.323
18	16	103.499
22	16	202.496
26	16	82.2071
30	16	4.409673
34	16	106.211
38	16	912.587
-24.5	16.5	6.570942
-20.5	16.5	2595.12
-16.5	16.5	2595.12
-12.5	16.5	64.015
-8.500000	16.5	110.033
-4.500000	16.5	2595.12
-0.500000	16.5	352.569
3.500000	16.5	206.709
7.500000	16.5	1217.18
11.5	16.5	84.8708
15.5	16.5	93.4953
19.5	16.5	112.854
23.5	16.5	141.488
27.5	16.5	104.953
31.5	16.5	922.034
35.5	16.5	55.9909
-27	17	2595.12
-23	17	29.884
-19	17	0.639823
-15	17	2595.12
-11	17	151.524
-7.000000	17	2595.12
-3.000000	17	42.6108
1.000000	17	147.785
5.000000	17	42.527
9.000000	17	26.2008
13	17	93.6446
17	17	104.209
21	17	72.4609
25	17	24.7182
29	17	0.639823
33	17	138.913
37	17	287.65
-25.5	17.5	0.888560
-21.5	17.5	2168.84
-17.5	17.5	2595.12
-13.5	17.5	281.349
-9.500000	17.5	42.7877
-5.500000	17.5	129.389
-1.500000	17.5	952.001
2.500000	17.5	90.8104
6.500000	17.5	2476.49
10.5	17.5	203.139
14.5	17.5	155.075
18.5	17.5	229.04
22.5	17.5	95.3763
26.5	17.5	56.5825
30.5	17.5	566.583
34.5	17.5	81.1548
-28	18	223.963
-24	18	2595.12
-20	18	2493.61
-16	18	2595.12
-12	18	121.131
-8.000000	18	0.639823
-4.000000	18	319.71
0.000000	18	237.266
4.000000	18	213.194
8.000000	18	2595.12
12	18	106.298
16	18	106.54
20	18	134.461
24	18	115.582
28	18	18.8648
32	18	1975.83
36	18	0.639823
-26.5	18.5	92.8756
-22.5	18.5	2595.12
-18.5	18.5	161.644
-14.5	18.5	115.173
-10.5	18.5	71.005
-6.500000	18.5	2.025436
-2.500000	18.5	1718.57
1.500000	18.5	135.535
5.500000	18.5	463.686
9.500000	18.5	359.788
13.5	18.5	74.1793
17.5	18.5	172.493
21.5	18.5	194.394
25.5	18.5	76.5981
29.5	18.5	713.478
33.5	18.5	116.433
37.5	18.5	134.519
-25	19	257.449
-21	19	2595.12
-17	19	2190.17
-13	19	18.3441
-9.000000	19	125.6
-5.000000	19	70.3798
-1.000000	19	1271.42
3.000000	19	147.84
7.000000	19	317.479
11	19	91.8888
15	19	143.587
19	19	128.582
23	19	113.709
27	19	201.381
31	19	89.743
35	19	27.1378
-27.5	19.5	103.448
-23.5	19.5	2595.12
-19.5	19.5	153.081
-15.5	19.5	2595.12
-11.5	19.5	29.5507
-7.500000	19.5	1273.21
-3.500000	19.5	133.099
0.500000	19.5	148.765
4.500000	19.5	1469.53
8.500000	19.5	0.639823
12.5	19.5	52.6904
16.5	19.5	104.314
20.5	19.5	139.183
24.5	19.5	3.653630
28.5	19.5	2.627120
32.5	19.5	55.416
36.5	19.5	518.064
-26	20	1165.86
-22	20	202.757
-18	20	560.999
-14	20	2595.12
-10	20	97.8195
-6.000000	20	118.875
-2.000000	20	91.5067
2.000000	20	174.455
6.000000	20	2028.45
10	20	69.5817
14	20	75.9446
18	20	134.876
22	20	130.558
26	20	2595.12
30	20	0.639823
34	20	178.518
38	20	145.443