File: data/derived_data/raman/20170920_Gr-NH2_for_Radisurf/20170920 Gr-NH for Radisurf map 1/D FWHM.txt
#XList		#YList		#IList
-28	-22	2.376360
-24	-22	107.561
-20	-22	97.604
-16	-22	97.6514
-12	-22	97.7476
-8.000000	-22	99.2224
-4.000000	-22	112.408
0.000000	-22	86.1114
4.000000	-22	91.3873
8.000000	-22	83.976
12	-22	98.7337
16	-22	80.5929
20	-22	92.9668
24	-22	101.96
28	-22	34.5742
32	-22	106.931
36	-22	211.061
-26.5	-21.5	0.639823
-22.5	-21.5	99.3959
-18.5	-21.5	85.3113
-14.5	-21.5	95.1316
-10.5	-21.5	94.4432
-6.500000	-21.5	99.6719
-2.500000	-21.5	88.3936
1.500000	-21.5	98.0254
5.500000	-21.5	106.007
9.500000	-21.5	89.5418
13.5	-21.5	86.9428
17.5	-21.5	86.3275
21.5	-21.5	95.985
25.5	-21.5	90.6089
29.5	-21.5	92.2466
33.5	-21.5	173.701
37.5	-21.5	7.620346
-25	-21	124.67
-21	-21	102.311
-17	-21	93.3841
-13	-21	118.429
-9.000000	-21	101.324
-5.000000	-21	86.9763
-1.000000	-21	91.6026
3.000000	-21	99.7618
7.000000	-21	109.018
11	-21	82.5854
15	-21	85.8277
19	-21	93.6606
23	-21	91.3475
27	-21	96.9137
31	-21	114.215
35	-21	3.441889
-27.5	-20.5	12.9986
-23.5	-20.5	92.6851
-19.5	-20.5	100.803
-15.5	-20.5	101.905
-11.5	-20.5	33.0838
-7.500000	-20.5	99.6031
-3.500000	-20.5	86.3555
0.500000	-20.5	70.042
4.500000	-20.5	89.1016
8.500000	-20.5	89.0075
12.5	-20.5	95.7414
16.5	-20.5	77.8107
20.5	-20.5	86.047
24.5	-20.5	98.2215
28.5	-20.5	105.16
32.5	-20.5	84.4193
36.5	-20.5	0.751100
-26	-20	49.2649
-22	-20	77.767
-18	-20	111.4
-14	-20	109.229
-10	-20	104.352
-6.000000	-20	113.311
-2.000000	-20	105.562
2.000000	-20	93.9242
6.000000	-20	82.6986
10	-20	86.1893
14	-20	86.0769
18	-20	86.5105
22	-20	91.9939
26	-20	61.1822
30	-20	114.389
34	-20	114.551
38	-20	28.4745
-24.5	-19.5	115.121
-20.5	-19.5	109.901
-16.5	-19.5	115.315
-12.5	-19.5	36.4543
-8.500000	-19.5	100.403
-4.500000	-19.5	93.6072
-0.500000	-19.5	68.6756
3.500000	-19.5	86.6971
7.500000	-19.5	99.5211
11.5	-19.5	88.5391
15.5	-19.5	81.8125
19.5	-19.5	91.282
23.5	-19.5	100.177
27.5	-19.5	90.2409
31.5	-19.5	91.1463
35.5	-19.5	0.847184
-27	-19	2595.12
-23	-19	117.797
-19	-19	118.607
-15	-19	88.1292
-11	-19	17.6281
-7.000000	-19	92.5149
-3.000000	-19	89.573
1.000000	-19	60.142
5.000000	-19	83.054
9.000000	-19	91.9704
13	-19	79.7131
17	-19	106.782
21	-19	85.8056
25	-19	98.9666
29	-19	95.7152
33	-19	3.098743
37	-19	18.9014
-25.5	-18.5	0.639823
-21.5	-18.5	115.531
-17.5	-18.5	104.912
-13.5	-18.5	131.652
-9.500000	-18.5	60.9055
-5.500000	-18.5	102.308
-1.500000	-18.5	95.0844
2.500000	-18.5	87.6035
6.500000	-18.5	83.9346
10.5	-18.5	86.7531
14.5	-18.5	76.5369
18.5	-18.5	88.0078
22.5	-18.5	92.1784
26.5	-18.5	98.3744
30.5	-18.5	82.9505
34.5	-18.5	23.7958
-28	-18	54.0554
-24	-18	74.8669
-20	-18	101.124
-16	-18	87.5131
-12	-18	129.997
-8.000000	-18	47.8641
-4.000000	-18	98.0431
0.000000	-18	96.8715
4.000000	-18	89.8008
8.000000	-18	80.4946
12	-18	87.0309
16	-18	100.859
20	-18	114.885
24	-18	88.7224
28	-18	91.5552
32	-18	66.7207
36	-18	3.908589
-26.5	-17.5	12.6289
-22.5	-17.5	8.964626
-18.5	-17.5	96.3425
-14.5	-17.5	89.7671
-10.5	-17.5	59.7036
-6.500000	-17.5	54.6209
-2.500000	-17.5	100.482
1.500000	-17.5	107.369
5.500000	-17.5	94.1603
9.500000	-17.5	95.6914
13.5	-17.5	79.139
17.5	-17.5	93.4951
21.5	-17.5	103.563
25.5	-17.5	104.468
29.5	-17.5	93.1034
33.5	-17.5	111.253
37.5	-17.5	83.8078
-25	-17	1.654718
-21	-17	61.9051
-17	-17	88.2297
-13	-17	89.5821
-9.000000	-17	87.0136
-5.000000	-17	91.7523
-1.000000	-17	115.238
3.000000	-17	95.0525
7.000000	-17	94.6379
11	-17	97.4828
15	-17	88.8998
19	-17	95.3885
23	-17	98.5073
27	-17	104.018
31	-17	82.5115
35	-17	0.900644
-27.5	-16.5	89.1558
-23.5	-16.5	107.357
-19.5	-16.5	93.7714
-15.5	-16.5	85.742
-11.5	-16.5	94.4278
-7.500000	-16.5	90.2018
-3.500000	-16.5	99.6836
0.500000	-16.5	105.756
4.500000	-16.5	108.056
8.500000	-16.5	111.852
12.5	-16.5	93.7022
16.5	-16.5	92.5531
20.5	-16.5	89.5223
24.5	-16.5	89.4248
28.5	-16.5	89.0214
32.5	-16.5	87.5579
36.5	-16.5	70.4781
-26	-16	83.6436
-22	-16	31.1627
-18	-16	89.0409
-14	-16	102.189
-10	-16	98.8265
-6.000000	-16	96.615
-2.000000	-16	94.1573
2.000000	-16	92.4933
6.000000	-16	101.009
10	-16	105.471
14	-16	82.7906
18	-16	95.2367
22	-16	75.7796
26	-16	99.7753
30	-16	87.2853
34	-16	110.517
38	-16	43.8672
-24.5	-15.5	2.162071
-20.5	-15.5	63.6469
-16.5	-15.5	94.0029
-12.5	-15.5	89.5658
-8.500000	-15.5	97.2094
-4.500000	-15.5	94.5736
-0.500000	-15.5	108.451
3.500000	-15.5	75.3178
7.500000	-15.5	100.433
11.5	-15.5	93.9499
15.5	-15.5	81.151
19.5	-15.5	92.9213
23.5	-15.5	100.672
27.5	-15.5	89.7881
31.5	-15.5	79.8734
35.5	-15.5	84.1548
-27	-15	73.0823
-23	-15	0.639823
-19	-15	103.179
-15	-15	95.0068
-11	-15	103.356
-7.000000	-15	98.9353
-3.000000	-15	93.2481
1.000000	-15	85.8462
5.000000	-15	105.601
9.000000	-15	96.0322
13	-15	86.7144
17	-15	83.4259
21	-15	90.6267
25	-15	78.5518
29	-15	92.0163
33	-15	109.243
37	-15	111.955
-25.5	-14.5	61.7296
-21.5	-14.5	58.5401
-17.5	-14.5	101.631
-13.5	-14.5	111.214
-9.500000	-14.5	96.9859
-5.500000	-14.5	99.8896
-1.500000	-14.5	103.827
2.500000	-14.5	71.5161
6.500000	-14.5	96.2708
10.5	-14.5	80.8549
14.5	-14.5	83.6799
18.5	-14.5	90.0752
22.5	-14.5	76.9271
26.5	-14.5	76.5265
30.5	-14.5	96.6888
34.5	-14.5	107.024
-28	-14	13.7729
-24	-14	0.639823
-20	-14	94.3625
-16	-14	103.699
-12	-14	94.9817
-8.000000	-14	101.251
-4.000000	-14	99.6413
0.000000	-14	87.4161
4.000000	-14	83.2551
8.000000	-14	105.038
12	-14	86.2513
16	-14	91.7934
20	-14	76.8289
24	-14	101.2
28	-14	92.9696
32	-14	115.85
36	-14	129.328
-26.5	-13.5	71.3167
-22.5	-13.5	1.057540
-18.5	-13.5	102.787
-14.5	-13.5	97.5502
-10.5	-13.5	108.879
-6.500000	-13.5	102.284
-2.500000	-13.5	102.387
1.500000	-13.5	73.0323
5.500000	-13.5	97.4117
9.500000	-13.5	91.4739
13.5	-13.5	106.447
17.5	-13.5	78.6932
21.5	-13.5	56.6786
25.5	-13.5	89.1538
29.5	-13.5	85.7656
33.5	-13.5	92.3334
37.5	-13.5	93.3017
-25	-13	30.7977
-21	-13	102.342
-17	-13	117.614
-13	-13	93.5114
-9.000000	-13	95.3011
-5.000000	-13	98.2047
-1.000000	-13	76.6527
3.000000	-13	69.784
7.000000	-13	88.774
11	-13	91.7517
15	-13	99.41
19	-13	85.9348
23	-13	94.93
27	-13	94.711
31	-13	115.866
35	-13	127.251
-27.5	-12.5	86.1623
-23.5	-12.5	24.4675
-19.5	-12.5	92.2707
-15.5	-12.5	101.458
-11.5	-12.5	108.317
-7.500000	-12.5	106.625
-3.500000	-12.5	111.318
0.500000	-12.5	74.9971
4.500000	-12.5	74.0636
8.500000	-12.5	112.597
12.5	-12.5	84.0032
16.5	-12.5	83.9416
20.5	-12.5	79.5447
24.5	-12.5	102.929
28.5	-12.5	80.0927
32.5	-12.5	79.4694
36.5	-12.5	94.3582
-26	-12	93.6048
-22	-12	149.81
-18	-12	104.342
-14	-12	104.255
-10	-12	97.1696
-6.000000	-12	97.9399
-2.000000	-12	98.041
2.000000	-12	73.1562
6.000000	-12	99.5913
10	-12	76.3249
14	-12	110.825
18	-12	80.9408
22	-12	46.9194
26	-12	124.844
30	-12	96.0947
34	-12	88.8869
38	-12	79.7687
-24.5	-11.5	20.582
-20.5	-11.5	18.0756
-16.5	-11.5	94.3885
-12.5	-11.5	117.842
-8.500000	-11.5	99.5532
-4.500000	-11.5	92.331
-0.500000	-11.5	71.0568
3.500000	-11.5	80.2192
7.500000	-11.5	86.5411
11.5	-11.5	14.0332
15.5	-11.5	74.0291
19.5	-11.5	84.2601
23.5	-11.5	101.492
27.5	-11.5	101.871
31.5	-11.5	26.2644
35.5	-11.5	95.5731
-27	-11	131.147
-23	-11	66.1636
-19	-11	107.864
-15	-11	102.76
-11	-11	94.8793
-7.000000	-11	99.1181
-3.000000	-11	92.4437
1.000000	-11	65.4137
5.000000	-11	91.982
9.000000	-11	87.9524
13	-11	0.639823
17	-11	91.2176
21	-11	93.073
25	-11	103.222
29	-11	74.0211
33	-11	108.602
37	-11	97.5949
-25.5	-10.5	55.9108
-21.5	-10.5	114.541
-17.5	-10.5	99.6863
-13.5	-10.5	81.4893
-9.500000	-10.5	102.681
-5.500000	-10.5	90.5116
-1.500000	-10.5	99.2664
2.500000	-10.5	94.4966
6.500000	-10.5	92.5124
10.5	-10.5	88.5798
14.5	-10.5	0.639823
18.5	-10.5	82.4058
22.5	-10.5	105.479
26.5	-10.5	122.588
30.5	-10.5	80.5056
34.5	-10.5	106.614
-28	-10	96.5598
-24	-10	95.8362
-20	-10	95.3448
-16	-10	100.416
-12	-10	86.0319
-8.000000	-10	88.2508
-4.000000	-10	99.1267
0.000000	-10	86.8856
4.000000	-10	88.003
8.000000	-10	99.2568
12	-10	102.999
16	-10	31.2755
20	-10	92.5801
24	-10	101.413
28	-10	25.3355
32	-10	63.6804
36	-10	64.5024
-26.5	-9.500000	22.3362
-22.5	-9.500000	102.425
-18.5	-9.500000	104.314
-14.5	-9.500000	100.187
-10.5	-9.500000	101.068
-6.500000	-9.500000	102.965
-2.500000	-9.500000	103.283
1.500000	-9.500000	93.528
5.500000	-9.500000	80.7233
9.500000	-9.500000	80.056
13.5	-9.500000	96.4881
17.5	-9.500000	90.7177
21.5	-9.500000	87.8533
25.5	-9.500000	94.7364
29.5	-9.500000	4.980209
33.5	-9.500000	99.3794
37.5	-9.500000	78.4318
-25	-9.000000	94.0327
-21	-9.000000	97.2439
-17	-9.000000	117.142
-13	-9.000000	89.1365
-9.000000	-9.000000	105.474
-5.000000	-9.000000	87.1004
-1.000000	-9.000000	97.2019
3.000000	-9.000000	91.3031
7.000000	-9.000000	91.1045
11	-9.000000	92.9192
15	-9.000000	75.6513
19	-9.000000	95.7724
23	-9.000000	100.626
27	-9.000000	106.325
31	-9.000000	81.657
35	-9.000000	95.9829
-27.5	-8.500000	83.2226
-23.5	-8.500000	104.371
-19.5	-8.500000	91.3613
-15.5	-8.500000	99.4594
-11.5	-8.500000	87.5125
-7.500000	-8.500000	97.1068
-3.500000	-8.500000	94.4134
0.500000	-8.500000	92.2725
4.500000	-8.500000	90.9631
8.500000	-8.500000	85.6632
12.5	-8.500000	77.2089
16.5	-8.500000	90.6707
20.5	-8.500000	91.1661
24.5	-8.500000	111.618
28.5	-8.500000	83.9198
32.5	-8.500000	91.5186
36.5	-8.500000	109.705
-26	-8.000000	2595.12
-22	-8.000000	105.195
-18	-8.000000	102.062
-14	-8.000000	97.1308
-10	-8.000000	103.802
-6.000000	-8.000000	90.9559
-2.000000	-8.000000	88.0663
2.000000	-8.000000	106.754
6.000000	-8.000000	79.7971
10	-8.000000	84.8344
14	-8.000000	98.6457
18	-8.000000	98.9367
22	-8.000000	102.213
26	-8.000000	98.3791
30	-8.000000	77.2883
34	-8.000000	108.904
38	-8.000000	16.0626
-24.5	-7.500000	96.3784
-20.5	-7.500000	95.788
-16.5	-7.500000	105.127
-12.5	-7.500000	96.2379
-8.500000	-7.500000	100.527
-4.500000	-7.500000	92.2478
-0.500000	-7.500000	100.569
3.500000	-7.500000	81.8123
7.500000	-7.500000	90.794
11.5	-7.500000	84.0387
15.5	-7.500000	87.8865
19.5	-7.500000	98.5032
23.5	-7.500000	110.495
27.5	-7.500000	87.2494
31.5	-7.500000	94.9263
35.5	-7.500000	118.511
-27	-7.000000	71.2242
-23	-7.000000	98.7899
-19	-7.000000	97.6723
-15	-7.000000	112.512
-11	-7.000000	101.796
-7.000000	-7.000000	88.8049
-3.000000	-7.000000	99.1465
1.000000	-7.000000	97.6724
5.000000	-7.000000	78.9582
9.000000	-7.000000	89.6279
13	-7.000000	87.4466
17	-7.000000	107.67
21	-7.000000	89.9265
25	-7.000000	96.5545
29	-7.000000	76.9378
33	-7.000000	103.784
37	-7.000000	87.7157
-25.5	-6.500000	11.0351
-21.5	-6.500000	99.8034
-17.5	-6.500000	101.68
-13.5	-6.500000	105.188
-9.500000	-6.500000	98.4608
-5.500000	-6.500000	97.3892
-1.500000	-6.500000	93.8694
2.500000	-6.500000	86.8411
6.500000	-6.500000	67.7265
10.5	-6.500000	94.9909
14.5	-6.500000	91.8569
18.5	-6.500000	104.525
22.5	-6.500000	80.0773
26.5	-6.500000	79.5866
30.5	-6.500000	107.886
34.5	-6.500000	91.8716
-28	-6.000000	103.77
-24	-6.000000	99.0123
-20	-6.000000	102.57
-16	-6.000000	105.721
-12	-6.000000	107.339
-8.000000	-6.000000	99.2604
-4.000000	-6.000000	104.847
0.000000	-6.000000	98.4037
4.000000	-6.000000	93.7091
8.000000	-6.000000	84.8891
12	-6.000000	109.674
16	-6.000000	92.0762
20	-6.000000	96.8992
24	-6.000000	102.992
28	-6.000000	90.6872
32	-6.000000	103.267
36	-6.000000	90.9346
-26.5	-5.500000	82.969
-22.5	-5.500000	97.1348
-18.5	-5.500000	92.9751
-14.5	-5.500000	107.141
-10.5	-5.500000	98.3606
-6.500000	-5.500000	116.727
-2.500000	-5.500000	98.5483
1.500000	-5.500000	94.1414
5.500000	-5.500000	90.4508
9.500000	-5.500000	96.3224
13.5	-5.500000	86.6019
17.5	-5.500000	106.831
21.5	-5.500000	91.0416
25.5	-5.500000	96.2634
29.5	-5.500000	103.507
33.5	-5.500000	82.2984
37.5	-5.500000	100.113
-25	-5.000000	114.19
-21	-5.000000	100.721
-17	-5.000000	87.6511
-13	-5.000000	115.506
-9.000000	-5.000000	94.8604
-5.000000	-5.000000	75.3461
-1.000000	-5.000000	96.8229
3.000000	-5.000000	95.1962
7.000000	-5.000000	90.3725
11	-5.000000	92.2416
15	-5.000000	101.328
19	-5.000000	100.512
23	-5.000000	88.5838
27	-5.000000	106.394
31	-5.000000	125.23
35	-5.000000	92.8566
-27.5	-4.500000	113.603
-23.5	-4.500000	102.756
-19.5	-4.500000	95.3745
-15.5	-4.500000	90.5882
-11.5	-4.500000	84.1298
-7.500000	-4.500000	102.045
-3.500000	-4.500000	68.5893
0.500000	-4.500000	85.1136
4.500000	-4.500000	122.112
8.500000	-4.500000	80.6677
12.5	-4.500000	89.7441
16.5	-4.500000	101.949
20.5	-4.500000	107.509
24.5	-4.500000	94.0373
28.5	-4.500000	103.476
32.5	-4.500000	76.3356
36.5	-4.500000	103.249
-26	-4.000000	47.3946
-22	-4.000000	104.525
-18	-4.000000	91.3062
-14	-4.000000	118.594
-10	-4.000000	122.031
-6.000000	-4.000000	74.2947
-2.000000	-4.000000	101.151
2.000000	-4.000000	82.8296
6.000000	-4.000000	82.8888
10	-4.000000	108.251
14	-4.000000	94.9329
18	-4.000000	99.6949
22	-4.000000	88.3373
26	-4.000000	96.0547
30	-4.000000	105.592
34	-4.000000	93.3678
38	-4.000000	90.6065
-24.5	-3.500000	45.6346
-20.5	-3.500000	97.5985
-16.5	-3.500000	89.271
-12.5	-3.500000	97.8027
-8.500000	-3.500000	3.561287
-4.500000	-3.500000	576.066
-0.500000	-3.500000	95.6497
3.500000	-3.500000	91.7928
7.500000	-3.500000	86.9814
11.5	-3.500000	101.258
15.5	-3.500000	93.7766
19.5	-3.500000	94.9295
23.5	-3.500000	91.3291
27.5	-3.500000	84.2415
31.5	-3.500000	80.1108
35.5	-3.500000	103.295
-27	-3.000000	96.6246
-23	-3.000000	89.456
-19	-3.000000	99.9469
-15	-3.000000	92.5346
-11	-3.000000	224.384
-7.000000	-3.000000	0.639823
-3.000000	-3.000000	71.8135
1.000000	-3.000000	88.8734
5.000000	-3.000000	112.585
9.000000	-3.000000	96.4673
13	-3.000000	85.6986
17	-3.000000	87.1403
21	-3.000000	91.4002
25	-3.000000	92.2647
29	-3.000000	91.9265
33	-3.000000	33.6547
37	-3.000000	99.4926
-25.5	-2.500000	100.677
-21.5	-2.500000	112.643
-17.5	-2.500000	81.9057
-13.5	-2.500000	94.1788
-9.500000	-2.500000	71.3591
-5.500000	-2.500000	44.1788
-1.500000	-2.500000	106.948
2.500000	-2.500000	98.95
6.500000	-2.500000	91.7059
10.5	-2.500000	94.2437
14.5	-2.500000	91.6945
18.5	-2.500000	86.8244
22.5	-2.500000	97.9698
26.5	-2.500000	101.56
30.5	-2.500000	86.112
34.5	-2.500000	95.5861
-28	-2.000000	103.196
-24	-2.000000	20.2579
-20	-2.000000	92.4468
-16	-2.000000	67.8202
-12	-2.000000	81.9844
-8.000000	-2.000000	81.6225
-4.000000	-2.000000	3.215819
0.000000	-2.000000	85.3618
4.000000	-2.000000	168.495
8.000000	-2.000000	54.3125
12	-2.000000	93.948
16	-2.000000	89.8597
20	-2.000000	94.3132
24	-2.000000	90.336
28	-2.000000	90.1481
32	-2.000000	109.848
36	-2.000000	114.72
-26.5	-1.500000	82.4711
-22.5	-1.500000	9.286454
-18.5	-1.500000	89.5342
-14.5	-1.500000	91.1665
-10.5	-1.500000	88.9088
-6.500000	-1.500000	0.639823
-2.500000	-1.500000	94.8409
1.500000	-1.500000	103.78
5.500000	-1.500000	86.4678
9.500000	-1.500000	90.5443
13.5	-1.500000	101.391
17.5	-1.500000	88.028
21.5	-1.500000	87.7764
25.5	-1.500000	93.894
29.5	-1.500000	88.9861
33.5	-1.500000	91.7484
37.5	-1.500000	118.148
-25	-1.000000	91.1892
-21	-1.000000	29.7524
-17	-1.000000	84.4302
-13	-1.000000	89.4323
-9.000000	-1.000000	103.898
-5.000000	-1.000000	0.902752
-1.000000	-1.000000	92.9507
3.000000	-1.000000	32.7318
7.000000	-1.000000	99.845
11	-1.000000	87.8634
15	-1.000000	89.4244
19	-1.000000	89.088
23	-1.000000	95.0186
27	-1.000000	86.3824
31	-1.000000	92.4844
35	-1.000000	85.0766
-27.5	-0.500000	90.4774
-23.5	-0.500000	9.604349
-19.5	-0.500000	104.332
-15.5	-0.500000	71
-11.5	-0.500000	87.3357
-7.500000	-0.500000	91.908
-3.500000	-0.500000	84.3072
0.500000	-0.500000	117.346
4.500000	-0.500000	110.895
8.500000	-0.500000	89.0846
12.5	-0.500000	87.9707
16.5	-0.500000	90.6201
20.5	-0.500000	96.5274
24.5	-0.500000	98.387
28.5	-0.500000	87.1392
32.5	-0.500000	73.486
36.5	-0.500000	96.8674
-26	0.000000	91.3024
-22	0.000000	56.6349
-18	0.000000	74.0894
-14	0.000000	82.992
-10	0.000000	97.2131
-6.000000	0.000000	0.639823
-2.000000	0.000000	111.4
2.000000	0.000000	77.5366
6.000000	0.000000	88.0177
10	0.000000	91.1193
14	0.000000	88.4949
18	0.000000	90.6819
22	0.000000	94.0564
26	0.000000	81.8444
30	0.000000	90.5729
34	0.000000	81.3743
38	0.000000	112.459
-24.5	0.500000	98.3642
-20.5	0.500000	82.2176
-16.5	0.500000	74.097
-12.5	0.500000	87.7028
-8.500000	0.500000	90.413
-4.500000	0.500000	74.0093
-0.500000	0.500000	99.552
3.500000	0.500000	79.7095
7.500000	0.500000	102.865
11.5	0.500000	98.6177
15.5	0.500000	94.1744
19.5	0.500000	84.2161
23.5	0.500000	96.3678
27.5	0.500000	87.4331
31.5	0.500000	77.7336
35.5	0.500000	34.4513
-27	1.000000	106.296
-23	1.000000	97.937
-19	1.000000	76.9571
-15	1.000000	79.963
-11	1.000000	89.3263
-7.000000	1.000000	15.3872
-3.000000	1.000000	80.8152
1.000000	1.000000	99.1039
5.000000	1.000000	81.9165
9.000000	1.000000	97.3973
13	1.000000	91.6153
17	1.000000	90.7282
21	1.000000	87.9633
25	1.000000	92.1606
29	1.000000	94.1468
33	1.000000	4.360514
37	1.000000	74.5258
-25.5	1.500000	110.502
-21.5	1.500000	95.257
-17.5	1.500000	78.9491
-13.5	1.500000	85.6551
-9.500000	1.500000	86.005
-5.500000	1.500000	3.785135
-1.500000	1.500000	88.2227
2.500000	1.500000	82.8971
6.500000	1.500000	87.0511
10.5	1.500000	85.9604
14.5	1.500000	87.995
18.5	1.500000	95.3
22.5	1.500000	95.0393
26.5	1.500000	91.969
30.5	1.500000	101.993
34.5	1.500000	0.639823
-28	2.000000	102.666
-24	2.000000	111.54
-20	2.000000	95.0781
-16	2.000000	75.4207
-12	2.000000	89.3648
-8.000000	2.000000	88.8707
-4.000000	2.000000	75.5281
0.000000	2.000000	93.847
4.000000	2.000000	86.4216
8.000000	2.000000	102.037
12	2.000000	85.0952
16	2.000000	92.8892
20	2.000000	90.6295
24	2.000000	88.357
28	2.000000	87.5018
32	2.000000	97.2512
36	2.000000	76.3687
-26.5	2.500000	116.367
-22.5	2.500000	101.801
-18.5	2.500000	89.5031
-14.5	2.500000	92.882
-10.5	2.500000	88.989
-6.500000	2.500000	114.24
-2.500000	2.500000	66.1618
1.500000	2.500000	93.6072
5.500000	2.500000	95.1327
9.500000	2.500000	90.6433
13.5	2.500000	82.815
17.5	2.500000	88.4408
21.5	2.500000	96.0343
25.5	2.500000	88.6407
29.5	2.500000	89.1998
33.5	2.500000	5.324386
37.5	2.500000	88.7294
-25	3.000000	134.179
-21	3.000000	93.7616
-17	3.000000	76.0299
-13	3.000000	88.4432
-9.000000	3.000000	80.4957
-5.000000	3.000000	94.8936
-1.000000	3.000000	127.321
3.000000	3.000000	96.2936
7.000000	3.000000	92.5688
11	3.000000	95.6872
15	3.000000	85.8864
19	3.000000	98.4563
23	3.000000	97.4116
27	3.000000	96.771
31	3.000000	95.4297
35	3.000000	55.1574
-27.5	3.500000	104.44
-23.5	3.500000	108.441
-19.5	3.500000	97.2864
-15.5	3.500000	87.2856
-11.5	3.500000	77.195
-7.500000	3.500000	86.9541
-3.500000	3.500000	88.5412
0.500000	3.500000	100.222
4.500000	3.500000	96.8924
8.500000	3.500000	91.8534
12.5	3.500000	95.2421
16.5	3.500000	97.7697
20.5	3.500000	101.49
24.5	3.500000	93.2742
28.5	3.500000	86.0639
32.5	3.500000	123.548
36.5	3.500000	87.9296
-26	4.000000	103.105
-22	4.000000	89.8453
-18	4.000000	85.5897
-14	4.000000	86.7402
-10	4.000000	79.0416
-6.000000	4.000000	86.0318
-2.000000	4.000000	86.4548
2.000000	4.000000	88.912
6.000000	4.000000	91.8649
10	4.000000	84.7872
14	4.000000	91.6582
18	4.000000	95.5955
22	4.000000	92.4135
26	4.000000	89.4128
30	4.000000	96.5046
34	4.000000	76.7706
38	4.000000	97.1039
-24.5	4.500000	115.245
-20.5	4.500000	90.6213
-16.5	4.500000	91.552
-12.5	4.500000	85.7843
-8.500000	4.500000	86.7535
-4.500000	4.500000	94.0557
-0.500000	4.500000	93.9601
3.500000	4.500000	90.931
7.500000	4.500000	86.5394
11.5	4.500000	95.2094
15.5	4.500000	102.173
19.5	4.500000	102.493
23.5	4.500000	102.372
27.5	4.500000	96.5033
31.5	4.500000	92.1316
35.5	4.500000	92.064
-27	5.000000	101.613
-23	5.000000	90.8046
-19	5.000000	93.2393
-15	5.000000	89.0343
-11	5.000000	77.8635
-7.000000	5.000000	88.9485
-3.000000	5.000000	115.594
1.000000	5.000000	88.0754
5.000000	5.000000	101.132
9.000000	5.000000	94.2104
13	5.000000	88.9589
17	5.000000	99.608
21	5.000000	92.3535
25	5.000000	98.2365
29	5.000000	88.3155
33	5.000000	96.8167
37	5.000000	101.287
-25.5	5.500000	88.0432
-21.5	5.500000	90.3024
-17.5	5.500000	91.3936
-13.5	5.500000	90.8361
-9.500000	5.500000	99.5548
-5.500000	5.500000	94.3311
-1.500000	5.500000	105.588
2.500000	5.500000	93.9248
6.500000	5.500000	106.273
10.5	5.500000	90.8301
14.5	5.500000	97.5438
18.5	5.500000	87.6982
22.5	5.500000	97.5409
26.5	5.500000	98.4715
30.5	5.500000	88.2306
34.5	5.500000	90.2926
-28	6.000000	80.8373
-24	6.000000	101.851
-20	6.000000	79.5365
-16	6.000000	94.0501
-12	6.000000	91.9314
-8.000000	6.000000	93.7138
-4.000000	6.000000	92.4706
0.000000	6.000000	100.161
4.000000	6.000000	93.6608
8.000000	6.000000	106.358
12	6.000000	90.9551
16	6.000000	96.9428
20	6.000000	88.9682
24	6.000000	94.2605
28	6.000000	94.8855
32	6.000000	103.407
36	6.000000	84.8195
-26.5	6.500000	110.286
-22.5	6.500000	93.6121
-18.5	6.500000	80.3283
-14.5	6.500000	96.4087
-10.5	6.500000	91.0967
-6.500000	6.500000	96.5088
-2.500000	6.500000	94.3026
1.500000	6.500000	86.7491
5.500000	6.500000	99.2236
9.500000	6.500000	88.6078
13.5	6.500000	96.267
17.5	6.500000	92.9394
21.5	6.500000	97.9142
25.5	6.500000	91.0328
29.5	6.500000	89.8237
33.5	6.500000	91.3093
37.5	6.500000	100.124
-25	7.000000	50.4531
-21	7.000000	82.6218
-17	7.000000	90.9471
-13	7.000000	89.4937
-9.000000	7.000000	93.596
-5.000000	7.000000	95.6462
-1.000000	7.000000	99.9004
3.000000	7.000000	89.9259
7.000000	7.000000	98.5573
11	7.000000	98.6098
15	7.000000	86.7759
19	7.000000	87.2882
23	7.000000	89.4234
27	7.000000	87.3743
31	7.000000	93.8131
35	7.000000	86.7539
-27.5	7.500000	112.948
-23.5	7.500000	102.444
-19.5	7.500000	84.0015
-15.5	7.500000	90.0827
-11.5	7.500000	86.1544
-7.500000	7.500000	88.2931
-3.500000	7.500000	87.7732
0.500000	7.500000	93.8108
4.500000	7.500000	101.653
8.500000	7.500000	97.6371
12.5	7.500000	88.0726
16.5	7.500000	98.6424
20.5	7.500000	94.2933
24.5	7.500000	107.761
28.5	7.500000	100.284
32.5	7.500000	88.8942
36.5	7.500000	94.9946
-26	8.000000	71.0428
-22	8.000000	96.3898
-18	8.000000	83.3765
-14	8.000000	94.7329
-10	8.000000	97.1582
-6.000000	8.000000	90.6758
-2.000000	8.000000	91.3889
2.000000	8.000000	101.024
6.000000	8.000000	92.2509
10	8.000000	108.397
14	8.000000	86.3072
18	8.000000	100.308
22	8.000000	94.4071
26	8.000000	96.2596
30	8.000000	87.6665
34	8.000000	90.3406
38	8.000000	85.0089
-24.5	8.500000	0.674279
-20.5	8.500000	85.4133
-16.5	8.500000	89.67
-12.5	8.500000	89.6045
-8.500000	8.500000	94.9172
-4.500000	8.500000	93.5383
-0.500000	8.500000	90.5955
3.500000	8.500000	90.4352
7.500000	8.500000	87.1496
11.5	8.500000	94.2539
15.5	8.500000	90.89
19.5	8.500000	99.5981
23.5	8.500000	92.958
27.5	8.500000	84.421
31.5	8.500000	86.4747
35.5	8.500000	81.1398
-27	9.000000	81.7665
-23	9.000000	101.151
-19	9.000000	77.9244
-15	9.000000	86.6978
-11	9.000000	90.7242
-7.000000	9.000000	88.9553
-3.000000	9.000000	96.2671
1.000000	9.000000	83.2808
5.000000	9.000000	103.968
9.000000	9.000000	75.0991
13	9.000000	84.021
17	9.000000	93.1972
21	9.000000	95.39
25	9.000000	110.362
29	9.000000	85.8395
33	9.000000	84.3894
37	9.000000	90.1123
-25.5	9.500000	0.711079
-21.5	9.500000	92.2873
-17.5	9.500000	88.9181
-13.5	9.500000	97.3512
-9.500000	9.500000	94.6362
-5.500000	9.500000	90.0377
-1.500000	9.500000	79.8458
2.500000	9.500000	98.6323
6.500000	9.500000	89.734
10.5	9.500000	80.9586
14.5	9.500000	82.432
18.5	9.500000	85.3294
22.5	9.500000	105.354
26.5	9.500000	99.1917
30.5	9.500000	84.5121
34.5	9.500000	83.0256
-28	10	0.639823
-24	10	116.963
-20	10	81.08
-16	10	91.4981
-12	10	97.5963
-8.000000	10	91.9763
-4.000000	10	87.1707
0.000000	10	83.5424
4.000000	10	103
8.000000	10	80.6786
12	10	77.8766
16	10	90.9353
20	10	95.2126
24	10	95.6111
28	10	97.4823
32	10	79.2562
36	10	90.217
-26.5	10.5	11.9712
-22.5	10.5	104.099
-18.5	10.5	90.0163
-14.5	10.5	94.6227
-10.5	10.5	94.8961
-6.500000	10.5	91.2784
-2.500000	10.5	95.1366
1.500000	10.5	78.5136
5.500000	10.5	61.1573
9.500000	10.5	94.2519
13.5	10.5	91.0547
17.5	10.5	87.7152
21.5	10.5	87.2848
25.5	10.5	88.7638
29.5	10.5	82.1064
33.5	10.5	94.8644
37.5	10.5	91.8215
-25	11	24.0028
-21	11	93.187
-17	11	85.5667
-13	11	93.025
-9.000000	11	88.2649
-5.000000	11	95.4606
-1.000000	11	92.1958
3.000000	11	93.0206
7.000000	11	79.1813
11	11	90.1021
15	11	88.0928
19	11	80.0644
23	11	82.5179
27	11	89.7497
31	11	96.6313
35	11	97.3587
-27.5	11.5	84.8477
-23.5	11.5	87.7269
-19.5	11.5	73.4832
-15.5	11.5	92.5087
-11.5	11.5	101.188
-7.500000	11.5	91.7796
-3.500000	11.5	97.4346
0.500000	11.5	82.8827
4.500000	11.5	4.654410
8.500000	11.5	89.7303
12.5	11.5	91.2013
16.5	11.5	80.3301
20.5	11.5	94.6094
24.5	11.5	92.0459
28.5	11.5	91.1183
32.5	11.5	92.5216
36.5	11.5	86.7872
-26	12	69.1973
-22	12	94.8717
-18	12	85.3406
-14	12	104.892
-10	12	94.2246
-6.000000	12	93.328
-2.000000	12	98.0844
2.000000	12	91.2423
6.000000	12	40.2584
10	12	96.4588
14	12	96.4933
18	12	80.1561
22	12	89.8423
26	12	87.9986
30	12	108.047
34	12	82.0132
38	12	85.9727
-24.5	12.5	280.651
-20.5	12.5	72.3417
-16.5	12.5	85.9219
-12.5	12.5	88.1006
-8.500000	12.5	91.3883
-4.500000	12.5	91.0801
-0.500000	12.5	94.0897
3.500000	12.5	7.625707
7.500000	12.5	88.3684
11.5	12.5	78.3689
15.5	12.5	75.1005
19.5	12.5	79.2655
23.5	12.5	87.8557
27.5	12.5	88.1301
31.5	12.5	98.2222
35.5	12.5	85.3685
-27	13	18.059
-23	13	50.8813
-19	13	18.8432
-15	13	0.639823
-11	13	91.0536
-7.000000	13	91.9482
-3.000000	13	97.4955
1.000000	13	85.4835
5.000000	13	94.9967
9.000000	13	88.2218
13	13	96.9949
17	13	78.1387
21	13	103.64
25	13	90.3879
29	13	91.3349
33	13	79.9669
37	13	87.2511
-25.5	13.5	3.553596
-21.5	13.5	82.3527
-17.5	13.5	0.639823
-13.5	13.5	62.4098
-9.500000	13.5	93.0368
-5.500000	13.5	89.1526
-1.500000	13.5	93.6342
2.500000	13.5	49.389
6.500000	13.5	2.520983
10.5	13.5	81.5412
14.5	13.5	78.3907
18.5	13.5	81.5375
22.5	13.5	97.6826
26.5	13.5	78.5761
30.5	13.5	99.6349
34.5	13.5	86.628
-28	14	10.6063
-24	14	5.118238
-20	14	32.0398
-16	14	31.3768
-12	14	98.3085
-8.000000	14	86.5995
-4.000000	14	104.44
0.000000	14	88.3915
4.000000	14	6.281153
8.000000	14	59.1547
12	14	92.7041
16	14	93.0757
20	14	85.5728
24	14	91.2287
28	14	86.6077
32	14	96.2169
36	14	90.5127
-26.5	14.5	0.639823
-22.5	14.5	103.223
-18.5	14.5	48.9405
-14.5	14.5	0.817479
-10.5	14.5	92.4979
-6.500000	14.5	114.119
-2.500000	14.5	98.0708
1.500000	14.5	59.8465
5.500000	14.5	0.639823
9.500000	14.5	97.8737
13.5	14.5	94.3017
17.5	14.5	79.2412
21.5	14.5	90.6948
25.5	14.5	82.4913
29.5	14.5	91.2966
33.5	14.5	88.2622
37.5	14.5	106.425
-25	15	39.1633
-21	15	3.847482
-17	15	76.8654
-13	15	17.8989
-9.000000	15	90.0515
-5.000000	15	66.7517
-1.000000	15	118.66
3.000000	15	75.2822
7.000000	15	176.448
11	15	93.1251
15	15	89.952
19	15	86.0231
23	15	96.0121
27	15	101.183
31	15	90.4064
35	15	77.4004
-27.5	15.5	159.278
-23.5	15.5	36.9524
-19.5	15.5	41.4534
-15.5	15.5	410.823
-11.5	15.5	82.4182
-7.500000	15.5	39.6386
-3.500000	15.5	77.9347
0.500000	15.5	90.8049
4.500000	15.5	103.363
8.500000	15.5	69.6149
12.5	15.5	91.5309
16.5	15.5	92.8296
20.5	15.5	93.5041
24.5	15.5	88.6714
28.5	15.5	90.1895
32.5	15.5	100.497
36.5	15.5	108.176
-26	16	2595.12
-22	16	83.06
-18	16	1.382201
-14	16	0.680693
-10	16	81.1524
-6.000000	16	366.451
-2.000000	16	83.5558
2.000000	16	99.3833
6.000000	16	27.2949
10	16	86.8478
14	16	93.0102
18	16	92.3727
22	16	78.4922
26	16	110.482
30	16	103.669
34	16	97.8344
38	16	107.675
-24.5	16.5	7.524861
-20.5	16.5	282.566
-16.5	16.5	144.929
-12.5	16.5	74.6183
-8.500000	16.5	93.7178
-4.500000	16.5	114.13
-0.500000	16.5	50.8637
3.500000	16.5	85.7015
7.500000	16.5	1.995416
11.5	16.5	99.3121
15.5	16.5	117.249
19.5	16.5	80.8181
23.5	16.5	90.1854
27.5	16.5	95.7002
31.5	16.5	97.8908
35.5	16.5	111.244
-27	17	7.540030
-23	17	6.387444
-19	17	4.771996
-15	17	1.101040
-11	17	73.5244
-7.000000	17	11.0858
-3.000000	17	2.354088
1.000000	17	100.124
5.000000	17	94.7605
9.000000	17	79.647
13	17	90.9688
17	17	88.3973
21	17	93.3017
25	17	109.642
29	17	109.744
33	17	92.9505
37	17	68.186
-25.5	17.5	1.239628
-21.5	17.5	74.4541
-17.5	17.5	0.639823
-13.5	17.5	99.8154
-9.500000	17.5	90.0644
-5.500000	17.5	6.835322
-1.500000	17.5	2595.12
2.500000	17.5	100.643
6.500000	17.5	4.520417
10.5	17.5	91.5818
14.5	17.5	81.3663
18.5	17.5	73.6069
22.5	17.5	98.0637
26.5	17.5	124.983
30.5	17.5	87.4306
34.5	17.5	108.409
-28	18	97.1376
-24	18	1.188753
-20	18	19.9725
-16	18	32.03
-12	18	89.2602
-8.000000	18	92.0555
-4.000000	18	35.3451
0.000000	18	87.0817
4.000000	18	87.3998
8.000000	18	37.4568
12	18	95.4526
16	18	90.9097
20	18	76.4674
24	18	98.1648
28	18	76.7056
32	18	63.6544
36	18	81.0521
-26.5	18.5	105.551
-22.5	18.5	105.184
-18.5	18.5	773.137
-14.5	18.5	86.6193
-10.5	18.5	90.0246
-6.500000	18.5	1.596647
-2.500000	18.5	82.1588
1.500000	18.5	93.2365
5.500000	18.5	2595.12
9.500000	18.5	90.1862
13.5	18.5	90.3368
17.5	18.5	96.0251
21.5	18.5	92.6632
25.5	18.5	93.1111
29.5	18.5	36.1272
33.5	18.5	96.6229
37.5	18.5	0.639823
-25	19	2595.12
-21	19	100.939
-17	19	36.2017
-13	19	104.797
-9.000000	19	84.8548
-5.000000	19	104.604
-1.000000	19	99.2858
3.000000	19	92.9538
7.000000	19	0.639823
11	19	95.2248
15	19	88.8254
19	19	81.3828
23	19	93.2378
27	19	31.1397
31	19	73.2088
35	19	94.3569
-27.5	19.5	104.412
-23.5	19.5	0.639823
-19.5	19.5	18.4808
-15.5	19.5	0.737958
-11.5	19.5	96.5646
-7.500000	19.5	68.5151
-3.500000	19.5	92.9572
0.500000	19.5	88.1426
4.500000	19.5	79.8361
8.500000	19.5	55.7969
12.5	19.5	97.4968
16.5	19.5	79.8508
20.5	19.5	87.1661
24.5	19.5	101.452
28.5	19.5	28.8721
32.5	19.5	108.417
36.5	19.5	96.8568
-26	20	38.8846
-22	20	108.362
-18	20	0.639823
-14	20	0.639823
-10	20	98.1833
-6.000000	20	97.487
-2.000000	20	101.055
2.000000	20	94.878
6.000000	20	32.8782
10	20	78.5675
14	20	99.7833
18	20	90.4557
22	20	89.9558
26	20	32.7795
30	20	21.2282
34	20	87.9231
38	20	60.1485