File: data/derived_data/raman/20170920_Gr-NH2_for_Radisurf/20170920 Gr-NH for Radisurf map 1/D int.txt
#XList		#YList		#IList
-28	-22	3.583256
-24	-22	237.741
-20	-22	54.2304
-16	-22	285.991
-12	-22	172.946
-8.000000	-22	318.499
-4.000000	-22	302.1
0.000000	-22	268.008
4.000000	-22	43.4012
8.000000	-22	286.928
12	-22	278.474
16	-22	319.282
20	-22	431.532
24	-22	19.7369
28	-22	4.537579
32	-22	60.9256
36	-22	0.531000
-26.5	-21.5	0.000000
-22.5	-21.5	139.568
-18.5	-21.5	237.393
-14.5	-21.5	197.656
-10.5	-21.5	250.192
-6.500000	-21.5	302.173
-2.500000	-21.5	165.222
1.500000	-21.5	34.9431
5.500000	-21.5	322.386
9.500000	-21.5	232.471
13.5	-21.5	224.775
17.5	-21.5	281.308
21.5	-21.5	344.879
25.5	-21.5	28.7552
29.5	-21.5	20.2586
33.5	-21.5	0.000000
37.5	-21.5	3.718895
-25	-21	156.863
-21	-21	241.211
-17	-21	238.93
-13	-21	116.471
-9.000000	-21	297.168
-5.000000	-21	236.392
-1.000000	-21	166.508
3.000000	-21	2.143918
7.000000	-21	208.228
11	-21	213.129
15	-21	260.6
19	-21	278.888
23	-21	276.691
27	-21	242.69
31	-21	48.9079
35	-21	3.968142
-27.5	-20.5	1.432744
-23.5	-20.5	181.915
-19.5	-20.5	249.838
-15.5	-20.5	245.403
-11.5	-20.5	9.095639
-7.500000	-20.5	183.261
-3.500000	-20.5	132.443
0.500000	-20.5	14.7635
4.500000	-20.5	171.899
8.500000	-20.5	264.944
12.5	-20.5	205.551
16.5	-20.5	267.928
20.5	-20.5	298.971
24.5	-20.5	224.327
28.5	-20.5	94.9927
32.5	-20.5	2.783732
36.5	-20.5	7.510866
-26	-20	1.904235
-22	-20	197.25
-18	-20	290.307
-14	-20	109.698
-10	-20	224.282
-6.000000	-20	21.5238
-2.000000	-20	43.1442
2.000000	-20	3.564934
6.000000	-20	239.063
10	-20	211.726
14	-20	147.772
18	-20	59.69
22	-20	275.012
26	-20	10.7396
30	-20	68.1396
34	-20	0.000000
38	-20	0.878965
-24.5	-19.5	198.828
-20.5	-19.5	251.784
-16.5	-19.5	315.041
-12.5	-19.5	5.327187
-8.500000	-19.5	226.299
-4.500000	-19.5	170.699
-0.500000	-19.5	5.784516
3.500000	-19.5	146.169
7.500000	-19.5	272.767
11.5	-19.5	158.524
15.5	-19.5	220.282
19.5	-19.5	274.574
23.5	-19.5	335.661
27.5	-19.5	24.3505
31.5	-19.5	24.0158
35.5	-19.5	2.924352
-27	-19	0.000000
-23	-19	173.923
-19	-19	242.801
-15	-19	228.277
-11	-19	4.885832
-7.000000	-19	33.0234
-3.000000	-19	217.275
1.000000	-19	3.313737
5.000000	-19	237.513
9.000000	-19	282.99
13	-19	159.638
17	-19	176.458
21	-19	280.288
25	-19	31.225
29	-19	196.311
33	-19	1.270372
37	-19	0.701318
-25.5	-18.5	0.000000
-21.5	-18.5	62.1417
-17.5	-18.5	215.705
-13.5	-18.5	19.1616
-9.500000	-18.5	7.486547
-5.500000	-18.5	97.966
-1.500000	-18.5	243.959
2.500000	-18.5	96.9072
6.500000	-18.5	239.212
10.5	-18.5	207.445
14.5	-18.5	178.626
18.5	-18.5	259.521
22.5	-18.5	310.519
26.5	-18.5	204.234
30.5	-18.5	205.329
34.5	-18.5	0.000000
-28	-18	6.384788
-24	-18	5.468327
-20	-18	22.2638
-16	-18	193.297
-12	-18	3.284170
-8.000000	-18	8.398888
-4.000000	-18	248.902
0.000000	-18	105.944
4.000000	-18	228.463
8.000000	-18	246.437
12	-18	148.129
16	-18	211.615
20	-18	274.256
24	-18	139.124
28	-18	60.5173
32	-18	5.267029
36	-18	6.369110
-26.5	-17.5	4.302553
-22.5	-17.5	5.556205
-18.5	-17.5	68.642
-14.5	-17.5	241.102
-10.5	-17.5	6.970035
-6.500000	-17.5	6.963220
-2.500000	-17.5	197.205
1.500000	-17.5	212.795
5.500000	-17.5	244.512
9.500000	-17.5	275.518
13.5	-17.5	124.583
17.5	-17.5	216.258
21.5	-17.5	299.563
25.5	-17.5	250.336
29.5	-17.5	129.067
33.5	-17.5	0.000000
37.5	-17.5	1.976560
-25	-17	7.808210
-21	-17	7.124080
-17	-17	130.58
-13	-17	149.156
-9.000000	-17	6.868470
-5.000000	-17	116.951
-1.000000	-17	71.8504
3.000000	-17	147.446
7.000000	-17	261.834
11	-17	249.949
15	-17	188.067
19	-17	286.063
23	-17	136.781
27	-17	219.502
31	-17	191.407
35	-17	1.661586
-27.5	-16.5	51.5203
-23.5	-16.5	0.000000
-19.5	-16.5	229.634
-15.5	-16.5	184.668
-11.5	-16.5	123.363
-7.500000	-16.5	58.2795
-3.500000	-16.5	293.279
0.500000	-16.5	48.1465
4.500000	-16.5	303.204
8.500000	-16.5	272.687
12.5	-16.5	117.37
16.5	-16.5	180.412
20.5	-16.5	204.291
24.5	-16.5	252.928
28.5	-16.5	260.228
32.5	-16.5	4.739770
36.5	-16.5	2.354325
-26	-16	14.5395
-22	-16	1.910580
-18	-16	247.778
-14	-16	207.84
-10	-16	164.735
-6.000000	-16	283.63
-2.000000	-16	178.634
2.000000	-16	204.059
6.000000	-16	227.464
10	-16	241.203
14	-16	183.184
18	-16	230.645
22	-16	207.906
26	-16	210.678
30	-16	84.9501
34	-16	5.292778
38	-16	3.234321
-24.5	-15.5	0.000000
-20.5	-15.5	12.8285
-16.5	-15.5	290.397
-12.5	-15.5	156.725
-8.500000	-15.5	289.636
-4.500000	-15.5	300.18
-0.500000	-15.5	87.7249
3.500000	-15.5	153.977
7.500000	-15.5	290.543
11.5	-15.5	194.827
15.5	-15.5	171.679
19.5	-15.5	164.8
23.5	-15.5	29.7662
27.5	-15.5	127.773
31.5	-15.5	73.2859
35.5	-15.5	160.395
-27	-15	34.6837
-23	-15	0.000000
-19	-15	254.497
-15	-15	287.751
-11	-15	286.787
-7.000000	-15	304.333
-3.000000	-15	299.127
1.000000	-15	191.994
5.000000	-15	282.319
9.000000	-15	265.206
13	-15	137.221
17	-15	203.992
21	-15	174.069
25	-15	21.7653
29	-15	37.9304
33	-15	14.1386
37	-15	76.8172
-25.5	-14.5	9.274760
-21.5	-14.5	5.495082
-17.5	-14.5	298.195
-13.5	-14.5	294.976
-9.500000	-14.5	294.897
-5.500000	-14.5	305.812
-1.500000	-14.5	225.586
2.500000	-14.5	194.119
6.500000	-14.5	283.544
10.5	-14.5	205.783
14.5	-14.5	175.239
18.5	-14.5	162.396
22.5	-14.5	8.727203
26.5	-14.5	20.5631
30.5	-14.5	68.3187
34.5	-14.5	47.5166
-28	-14	4.647367
-24	-14	0.000000
-20	-14	9.188725
-16	-14	281.781
-12	-14	291.1
-8.000000	-14	327.2
-4.000000	-14	307.362
0.000000	-14	184.355
4.000000	-14	190.947
8.000000	-14	253.396
12	-14	212.445
16	-14	258.305
20	-14	30.0519
24	-14	160.514
28	-14	78.165
32	-14	223.997
36	-14	101.646
-26.5	-13.5	10.8164
-22.5	-13.5	12.6503
-18.5	-13.5	184.852
-14.5	-13.5	255.11
-10.5	-13.5	43.6579
-6.500000	-13.5	334.669
-2.500000	-13.5	329.413
1.500000	-13.5	173.318
5.500000	-13.5	251.349
9.500000	-13.5	182.582
13.5	-13.5	208.998
17.5	-13.5	264.86
21.5	-13.5	3.781229
25.5	-13.5	35.3915
29.5	-13.5	68.2268
33.5	-13.5	70.5884
37.5	-13.5	55.4127
-25	-13	3.773434
-21	-13	61.2185
-17	-13	230.577
-13	-13	282.779
-9.000000	-13	328.005
-5.000000	-13	316.647
-1.000000	-13	201.677
3.000000	-13	180.076
7.000000	-13	261.403
11	-13	83.9452
15	-13	160.674
19	-13	61.5546
23	-13	113.727
27	-13	144.725
31	-13	4.113362
35	-13	36.2987
-27.5	-12.5	52.9283
-23.5	-12.5	0.899459
-19.5	-12.5	15.6723
-15.5	-12.5	278.043
-11.5	-12.5	220.472
-7.500000	-12.5	303.064
-3.500000	-12.5	328.626
0.500000	-12.5	154.06
4.500000	-12.5	58.2004
8.500000	-12.5	84.9372
12.5	-12.5	8.925778
16.5	-12.5	224.639
20.5	-12.5	148.049
24.5	-12.5	274.973
28.5	-12.5	116.235
32.5	-12.5	12.9002
36.5	-12.5	50.6011
-26	-12	226.826
-22	-12	0.000000
-18	-12	212.755
-14	-12	308.575
-10	-12	315.593
-6.000000	-12	283.178
-2.000000	-12	311.608
2.000000	-12	178.937
6.000000	-12	198.642
10	-12	10.9881
14	-12	8.709910
18	-12	223.725
22	-12	7.479899
26	-12	152.398
30	-12	236.744
34	-12	35.8396
38	-12	19.708
-24.5	-11.5	1.579124
-20.5	-11.5	5.349022
-16.5	-11.5	223.436
-12.5	-11.5	202.169
-8.500000	-11.5	317.909
-4.500000	-11.5	190.204
-0.500000	-11.5	194.416
3.500000	-11.5	222.168
7.500000	-11.5	240.448
11.5	-11.5	2.186859
15.5	-11.5	14.4449
19.5	-11.5	105.329
23.5	-11.5	248.343
27.5	-11.5	15.8165
31.5	-11.5	3.475971
35.5	-11.5	57.7869
-27	-11	7.256357
-23	-11	2.535841
-19	-11	286.664
-15	-11	297.67
-11	-11	170.647
-7.000000	-11	205.425
-3.000000	-11	301.596
1.000000	-11	175.801
5.000000	-11	192.662
9.000000	-11	135.167
13	-11	12.9707
17	-11	192.789
21	-11	258.225
25	-11	198.658
29	-11	14.4903
33	-11	2.080328
37	-11	31.7533
-25.5	-10.5	3.288206
-21.5	-10.5	1.808246
-17.5	-10.5	311.798
-13.5	-10.5	188.935
-9.500000	-10.5	303.356
-5.500000	-10.5	155.727
-1.500000	-10.5	109.311
2.500000	-10.5	205.699
6.500000	-10.5	161.093
10.5	-10.5	106.718
14.5	-10.5	0.000000
18.5	-10.5	162.448
22.5	-10.5	53.8631
26.5	-10.5	228.08
30.5	-10.5	7.454267
34.5	-10.5	3.701351
-28	-10	188.46
-24	-10	22.0287
-20	-10	105.407
-16	-10	313.631
-12	-10	144.69
-8.000000	-10	194.817
-4.000000	-10	170.252
0.000000	-10	144.2
4.000000	-10	243.135
8.000000	-10	121.334
12	-10	31.6636
16	-10	6.866729
20	-10	86.8787
24	-10	227.244
28	-10	4.146998
32	-10	5.090306
36	-10	4.952636
-26.5	-9.500000	2.117138
-22.5	-9.500000	130.556
-18.5	-9.500000	326.613
-14.5	-9.500000	293.342
-10.5	-9.500000	35.2217
-6.500000	-9.500000	155.059
-2.500000	-9.500000	169.894
1.500000	-9.500000	182.818
5.500000	-9.500000	133.874
9.500000	-9.500000	131.693
13.5	-9.500000	83.3114
17.5	-9.500000	10.5552
21.5	-9.500000	131.165
25.5	-9.500000	227.598
29.5	-9.500000	0.587464
33.5	-9.500000	103.756
37.5	-9.500000	19.706
-25	-9.000000	12.7884
-21	-9.000000	19.5387
-17	-9.000000	287.35
-13	-9.000000	48.5392
-9.000000	-9.000000	258.786
-5.000000	-9.000000	163.64
-1.000000	-9.000000	159.165
3.000000	-9.000000	235.84
7.000000	-9.000000	42.7648
11	-9.000000	195.689
15	-9.000000	13.9868
19	-9.000000	184.449
23	-9.000000	274.584
27	-9.000000	72.0236
31	-9.000000	8.249150
35	-9.000000	39.6379
-27.5	-8.500000	15.9839
-23.5	-8.500000	286.444
-19.5	-8.500000	133.603
-15.5	-8.500000	274.932
-11.5	-8.500000	10.3214
-7.500000	-8.500000	237.741
-3.500000	-8.500000	175.038
0.500000	-8.500000	258.054
4.500000	-8.500000	132.594
8.500000	-8.500000	183.482
12.5	-8.500000	111.058
16.5	-8.500000	77.6144
20.5	-8.500000	169.981
24.5	-8.500000	165.911
28.5	-8.500000	89.6721
32.5	-8.500000	205.157
36.5	-8.500000	3.674272
-26	-8.000000	0.794297
-22	-8.000000	267.531
-18	-8.000000	307.002
-14	-8.000000	308.925
-10	-8.000000	265.962
-6.000000	-8.000000	159.978
-2.000000	-8.000000	153.13
2.000000	-8.000000	201.024
6.000000	-8.000000	48.2544
10	-8.000000	202.24
14	-8.000000	245.337
18	-8.000000	185.196
22	-8.000000	264.658
26	-8.000000	220.683
30	-8.000000	128.906
34	-8.000000	236.729
38	-8.000000	7.304013
-24.5	-7.500000	146.477
-20.5	-7.500000	228.616
-16.5	-7.500000	295.929
-12.5	-7.500000	183.569
-8.500000	-7.500000	218.477
-4.500000	-7.500000	174.514
-0.500000	-7.500000	295.479
3.500000	-7.500000	166.346
7.500000	-7.500000	42.2703
11.5	-7.500000	148.31
15.5	-7.500000	192.735
19.5	-7.500000	77.5858
23.5	-7.500000	147.553
27.5	-7.500000	60.3136
31.5	-7.500000	70.1495
35.5	-7.500000	147.732
-27	-7.000000	7.363872
-23	-7.000000	284.374
-19	-7.000000	198.731
-15	-7.000000	283.58
-11	-7.000000	34.68
-7.000000	-7.000000	180.092
-3.000000	-7.000000	156.927
1.000000	-7.000000	273.913
5.000000	-7.000000	54.2382
9.000000	-7.000000	243.362
13	-7.000000	76.9187
17	-7.000000	280.688
21	-7.000000	165.591
25	-7.000000	100.786
29	-7.000000	25.1354
33	-7.000000	188.257
37	-7.000000	170.833
-25.5	-6.500000	8.115714
-21.5	-6.500000	279.896
-17.5	-6.500000	282.712
-13.5	-6.500000	312.297
-9.500000	-6.500000	196.97
-5.500000	-6.500000	178.96
-1.500000	-6.500000	235.738
2.500000	-6.500000	148.388
6.500000	-6.500000	45.0099
10.5	-6.500000	207.779
14.5	-6.500000	117.244
18.5	-6.500000	189.493
22.5	-6.500000	162.388
26.5	-6.500000	21.3876
30.5	-6.500000	118.1
34.5	-6.500000	179.175
-28	-6.000000	59.8571
-24	-6.000000	225.969
-20	-6.000000	256.761
-16	-6.000000	295.061
-12	-6.000000	241.384
-8.000000	-6.000000	179.664
-4.000000	-6.000000	234.913
0.000000	-6.000000	175.759
4.000000	-6.000000	239.86
8.000000	-6.000000	249.086
12	-6.000000	245.551
16	-6.000000	226.273
20	-6.000000	183.725
24	-6.000000	268.967
28	-6.000000	109.986
32	-6.000000	43.8813
36	-6.000000	228.036
-26.5	-5.500000	17.4153
-22.5	-5.500000	281.297
-18.5	-5.500000	200.987
-14.5	-5.500000	317.357
-10.5	-5.500000	4.404246
-6.500000	-5.500000	89.2849
-2.500000	-5.500000	34.2957
1.500000	-5.500000	153.93
5.500000	-5.500000	108.836
9.500000	-5.500000	219.894
13.5	-5.500000	240.485
17.5	-5.500000	266.43
21.5	-5.500000	128.252
25.5	-5.500000	89.4163
29.5	-5.500000	37.4696
33.5	-5.500000	219.623
37.5	-5.500000	188.492
-25	-5.000000	3.134753
-21	-5.000000	293.888
-17	-5.000000	204.716
-13	-5.000000	96.0262
-9.000000	-5.000000	5.337045
-5.000000	-5.000000	9.819808
-1.000000	-5.000000	234.503
3.000000	-5.000000	208.659
7.000000	-5.000000	76.101
11	-5.000000	246.894
15	-5.000000	211.51
19	-5.000000	171.304
23	-5.000000	149.696
27	-5.000000	129.829
31	-5.000000	150.446
35	-5.000000	226.514
-27.5	-4.500000	41.7298
-23.5	-4.500000	200.362
-19.5	-4.500000	209.303
-15.5	-4.500000	184.712
-11.5	-4.500000	5.801274
-7.500000	-4.500000	8.174515
-3.500000	-4.500000	7.168994
0.500000	-4.500000	239.453
4.500000	-4.500000	114.95
8.500000	-4.500000	134.491
12.5	-4.500000	275.453
16.5	-4.500000	219.646
20.5	-4.500000	133.697
24.5	-4.500000	142.098
28.5	-4.500000	198.762
32.5	-4.500000	122.726
36.5	-4.500000	218.478
-26	-4.000000	8.352185
-22	-4.000000	302.859
-18	-4.000000	210.19
-14	-4.000000	219.717
-10	-4.000000	0.190648
-6.000000	-4.000000	4.030537
-2.000000	-4.000000	293.379
2.000000	-4.000000	135.357
6.000000	-4.000000	5.406047
10	-4.000000	66.2922
14	-4.000000	128.717
18	-4.000000	137.595
22	-4.000000	129.852
26	-4.000000	125.643
30	-4.000000	138.452
34	-4.000000	158.129
38	-4.000000	199.746
-24.5	-3.500000	3.205987
-20.5	-3.500000	238.915
-16.5	-3.500000	197.906
-12.5	-3.500000	63.0506
-8.500000	-3.500000	9.161897
-4.500000	-3.500000	0.000000
-0.500000	-3.500000	235.324
3.500000	-3.500000	75.737
7.500000	-3.500000	33.153
11.5	-3.500000	167.274
15.5	-3.500000	128.472
19.5	-3.500000	128.907
23.5	-3.500000	146.595
27.5	-3.500000	160.64
31.5	-3.500000	7.427174
35.5	-3.500000	84.1428
-27	-3.000000	13.9895
-23	-3.000000	128.505
-19	-3.000000	245.687
-15	-3.000000	220.244
-11	-3.000000	1.683153
-7.000000	-3.000000	0.000000
-3.000000	-3.000000	14.7874
1.000000	-3.000000	274.618
5.000000	-3.000000	72.83
9.000000	-3.000000	54.4383
13	-3.000000	136.246
17	-3.000000	134.26
21	-3.000000	126.491
25	-3.000000	130.616
29	-3.000000	200.665
33	-3.000000	4.836591
37	-3.000000	82.8136
-25.5	-2.500000	5.992279
-21.5	-2.500000	82.2864
-17.5	-2.500000	250.772
-13.5	-2.500000	91.3152
-9.500000	-2.500000	4.328576
-5.500000	-2.500000	0.800499
-1.500000	-2.500000	250.983
2.500000	-2.500000	209.786
6.500000	-2.500000	31.6354
10.5	-2.500000	244.868
14.5	-2.500000	126.296
18.5	-2.500000	129.808
22.5	-2.500000	132.948
26.5	-2.500000	120.752
30.5	-2.500000	14.2942
34.5	-2.500000	195.932
-28	-2.000000	55.5723
-24	-2.000000	2.908830
-20	-2.000000	11.5735
-16	-2.000000	185.936
-12	-2.000000	17.4493
-8.000000	-2.000000	14.19
-4.000000	-2.000000	3.016132
0.000000	-2.000000	260.382
4.000000	-2.000000	1.692414
8.000000	-2.000000	14.3376
12	-2.000000	169.182
16	-2.000000	134.138
20	-2.000000	126.308
24	-2.000000	145.595
28	-2.000000	210.651
32	-2.000000	27.1108
36	-2.000000	166.606
-26.5	-1.500000	4.105887
-22.5	-1.500000	4.215143
-18.5	-1.500000	217.602
-14.5	-1.500000	171.257
-10.5	-1.500000	79.1505
-6.500000	-1.500000	2.080439
-2.500000	-1.500000	21.5084
1.500000	-1.500000	239.254
5.500000	-1.500000	72.7407
9.500000	-1.500000	170.953
13.5	-1.500000	205.9
17.5	-1.500000	133.461
21.5	-1.500000	119.41
25.5	-1.500000	128.328
29.5	-1.500000	168.586
33.5	-1.500000	8.240483
37.5	-1.500000	255.554
-25	-1.000000	3.351850
-21	-1.000000	2.279948
-17	-1.000000	212.672
-13	-1.000000	77.0382
-9.000000	-1.000000	270.535
-5.000000	-1.000000	2.019327
-1.000000	-1.000000	200.923
3.000000	-1.000000	7.863950
7.000000	-1.000000	109.389
11	-1.000000	220.854
15	-1.000000	142.192
19	-1.000000	127.016
23	-1.000000	117.471
27	-1.000000	161.613
31	-1.000000	211.446
35	-1.000000	179.968
-27.5	-0.500000	37.6285
-23.5	-0.500000	4.785898
-19.5	-0.500000	50.5493
-15.5	-0.500000	184.089
-11.5	-0.500000	278.535
-7.500000	-0.500000	11.6622
-3.500000	-0.500000	12.3997
0.500000	-0.500000	112.286
4.500000	-0.500000	29.549
8.500000	-0.500000	144.721
12.5	-0.500000	157.09
16.5	-0.500000	152.299
20.5	-0.500000	114.38
24.5	-0.500000	142.595
28.5	-0.500000	235.787
32.5	-0.500000	8.121647
36.5	-0.500000	91.3681
-26	0.000000	108.571
-22	0.000000	5.263120
-18	0.000000	216.966
-14	0.000000	249.762
-10	0.000000	251.771
-6.000000	0.000000	0.000000
-2.000000	0.000000	148.441
2.000000	0.000000	7.950455
6.000000	0.000000	113.779
10	0.000000	267.093
14	0.000000	144.729
18	0.000000	142.51
22	0.000000	127.377
26	0.000000	156.12
30	0.000000	209.423
34	0.000000	2.951793
38	0.000000	270.334
-24.5	0.500000	96.2953
-20.5	0.500000	11.9747
-16.5	0.500000	180.551
-12.5	0.500000	303.772
-8.500000	0.500000	238.666
-4.500000	0.500000	0.000000
-0.500000	0.500000	204.694
3.500000	0.500000	138.144
7.500000	0.500000	118.96
11.5	0.500000	222.979
15.5	0.500000	155.743
19.5	0.500000	124.554
23.5	0.500000	121.683
27.5	0.500000	241.195
31.5	0.500000	107.994
35.5	0.500000	4.675189
-27	1.000000	98.7811
-23	1.000000	267.617
-19	1.000000	263.465
-15	1.000000	168.705
-11	1.000000	295.8
-7.000000	1.000000	11.5601
-3.000000	1.000000	55.1468
1.000000	1.000000	168.939
5.000000	1.000000	232.177
9.000000	1.000000	287.039
13	1.000000	171.56
17	1.000000	159.007
21	1.000000	137.302
25	1.000000	142.27
29	1.000000	225.19
33	1.000000	9.687670
37	1.000000	11.779
-25.5	1.500000	126.973
-21.5	1.500000	153.113
-17.5	1.500000	208.973
-13.5	1.500000	226.704
-9.500000	1.500000	190.996
-5.500000	1.500000	7.160089
-1.500000	1.500000	55.4231
2.500000	1.500000	93.3197
6.500000	1.500000	165.205
10.5	1.500000	273.597
14.5	1.500000	168.98
18.5	1.500000	127.571
22.5	1.500000	123.33
26.5	1.500000	179.653
30.5	1.500000	250.612
34.5	1.500000	3.914028
-28	2.000000	159.771
-24	2.000000	100.444
-20	2.000000	97.2847
-16	2.000000	173.681
-12	2.000000	238.676
-8.000000	2.000000	164.197
-4.000000	2.000000	24.1488
0.000000	2.000000	97.612
4.000000	2.000000	245.186
8.000000	2.000000	63.8635
12	2.000000	201.648
16	2.000000	185.107
20	2.000000	130.353
24	2.000000	116.687
28	2.000000	217.119
32	2.000000	7.019062
36	2.000000	17.3865
-26.5	2.500000	72.6944
-22.5	2.500000	192.007
-18.5	2.500000	269.544
-14.5	2.500000	248.838
-10.5	2.500000	209.809
-6.500000	2.500000	25.6857
-2.500000	2.500000	12.4411
1.500000	2.500000	224.115
5.500000	2.500000	225.399
9.500000	2.500000	180.173
13.5	2.500000	187.076
17.5	2.500000	136.33
21.5	2.500000	124.01
25.5	2.500000	121.385
29.5	2.500000	226.15
33.5	2.500000	1.315328
37.5	2.500000	14.7923
-25	3.000000	43.0952
-21	3.000000	220.613
-17	3.000000	240.325
-13	3.000000	269.551
-9.000000	3.000000	151.607
-5.000000	3.000000	14.1061
-1.000000	3.000000	31.8658
3.000000	3.000000	187.593
7.000000	3.000000	211.429
11	3.000000	256.289
15	3.000000	177.673
19	3.000000	171.959
23	3.000000	161.887
27	3.000000	203.211
31	3.000000	192.004
35	3.000000	3.013564
-27.5	3.500000	134.326
-23.5	3.500000	115.064
-19.5	3.500000	297.805
-15.5	3.500000	236.266
-11.5	3.500000	217.977
-7.500000	3.500000	89.5766
-3.500000	3.500000	78.6007
0.500000	3.500000	159.538
4.500000	3.500000	154.057
8.500000	3.500000	70.3352
12.5	3.500000	273.688
16.5	3.500000	159.725
20.5	3.500000	130.754
24.5	3.500000	127.656
28.5	3.500000	216.798
32.5	3.500000	0.000000
36.5	3.500000	255.26
-26	4.000000	105.489
-22	4.000000	79.0734
-18	4.000000	312.204
-14	4.000000	210.684
-10	4.000000	194.889
-6.000000	4.000000	67.2083
-2.000000	4.000000	103.692
2.000000	4.000000	133.419
6.000000	4.000000	204.429
10	4.000000	168.738
14	4.000000	274.735
18	4.000000	141.033
22	4.000000	167.5
26	4.000000	149.35
30	4.000000	165.97
34	4.000000	4.704411
38	4.000000	162.933
-24.5	4.500000	45.0962
-20.5	4.500000	104.86
-16.5	4.500000	222.706
-12.5	4.500000	252.665
-8.500000	4.500000	162.066
-4.500000	4.500000	90.9928
-0.500000	4.500000	145.089
3.500000	4.500000	148.153
7.500000	4.500000	172.127
11.5	4.500000	219.155
15.5	4.500000	271.925
19.5	4.500000	136.517
23.5	4.500000	153.412
27.5	4.500000	157.938
31.5	4.500000	4.530952
35.5	4.500000	155.765
-27	5.000000	262.466
-23	5.000000	220.928
-19	5.000000	204.539
-15	5.000000	209.433
-11	5.000000	253.622
-7.000000	5.000000	84.2345
-3.000000	5.000000	55.2285
1.000000	5.000000	229.993
5.000000	5.000000	146.152
9.000000	5.000000	108.018
13	5.000000	267.865
17	5.000000	245.487
21	5.000000	124.884
25	5.000000	95.8786
29	5.000000	185.991
33	5.000000	22.2965
37	5.000000	167.492
-25.5	5.500000	150.054
-21.5	5.500000	119.164
-17.5	5.500000	244.542
-13.5	5.500000	181.314
-9.500000	5.500000	252.818
-5.500000	5.500000	71.6931
-1.500000	5.500000	97.1282
2.500000	5.500000	184.357
6.500000	5.500000	119.545
10.5	5.500000	178.683
14.5	5.500000	294.626
18.5	5.500000	197.242
22.5	5.500000	120.826
26.5	5.500000	111.963
30.5	5.500000	134.38
34.5	5.500000	201.464
-28	6.000000	178.263
-24	6.000000	39.0173
-20	6.000000	168.982
-16	6.000000	266.545
-12	6.000000	178.396
-8.000000	6.000000	276.298
-4.000000	6.000000	84.5023
0.000000	6.000000	130.077
4.000000	6.000000	173.211
8.000000	6.000000	122.142
12	6.000000	123.106
16	6.000000	221.987
20	6.000000	139.316
24	6.000000	114.831
28	6.000000	172.476
32	6.000000	39.8457
36	6.000000	145.299
-26.5	6.500000	71.0209
-22.5	6.500000	312.284
-18.5	6.500000	191.987
-14.5	6.500000	251.085
-10.5	6.500000	189.635
-6.500000	6.500000	184.749
-2.500000	6.500000	75.5244
1.500000	6.500000	192.239
5.500000	6.500000	203.779
9.500000	6.500000	86.8825
13.5	6.500000	279.994
17.5	6.500000	210.316
21.5	6.500000	120.71
25.5	6.500000	130.739
29.5	6.500000	142.57
33.5	6.500000	137.767
37.5	6.500000	157.402
-25	7.000000	2.203925
-21	7.000000	232.584
-17	7.000000	143.175
-13	7.000000	178.821
-9.000000	7.000000	237.227
-5.000000	7.000000	231.126
-1.000000	7.000000	108.251
3.000000	7.000000	186.547
7.000000	7.000000	119.356
11	7.000000	67.4475
15	7.000000	208.256
19	7.000000	228.286
23	7.000000	111.752
27	7.000000	123.157
31	7.000000	166.048
35	7.000000	142.569
-27.5	7.500000	17.8863
-23.5	7.500000	39.6543
-19.5	7.500000	186.475
-15.5	7.500000	275.026
-11.5	7.500000	166.826
-7.500000	7.500000	220.145
-3.500000	7.500000	110.548
0.500000	7.500000	196.085
4.500000	7.500000	186.594
8.500000	7.500000	101.638
12.5	7.500000	292.625
16.5	7.500000	129.858
20.5	7.500000	137.7
24.5	7.500000	85.8123
28.5	7.500000	213.384
32.5	7.500000	138.362
36.5	7.500000	136.695
-26	8.000000	20.4743
-22	8.000000	202.681
-18	8.000000	144.126
-14	8.000000	335.773
-10	8.000000	196.409
-6.000000	8.000000	218.186
-2.000000	8.000000	146.142
2.000000	8.000000	232.771
6.000000	8.000000	157.043
10	8.000000	112.881
14	8.000000	309.856
18	8.000000	121.743
22	8.000000	114.144
26	8.000000	106.527
30	8.000000	163.285
34	8.000000	114.736
38	8.000000	251.081
-24.5	8.500000	25.7059
-20.5	8.500000	196.287
-16.5	8.500000	319.332
-12.5	8.500000	225.913
-8.500000	8.500000	211.575
-4.500000	8.500000	224.927
-0.500000	8.500000	281.312
3.500000	8.500000	89.1366
7.500000	8.500000	108.687
11.5	8.500000	305.286
15.5	8.500000	196.081
19.5	8.500000	135.761
23.5	8.500000	123.764
27.5	8.500000	138.434
31.5	8.500000	191.674
35.5	8.500000	243.656
-27	9.000000	4.421976
-23	9.000000	44.0435
-19	9.000000	171.029
-15	9.000000	403.503
-11	9.000000	202.086
-7.000000	9.000000	224.299
-3.000000	9.000000	289.18
1.000000	9.000000	243.153
5.000000	9.000000	195.975
9.000000	9.000000	194.266
13	9.000000	292.582
17	9.000000	198.033
21	9.000000	166.198
25	9.000000	76.5973
29	9.000000	147.227
33	9.000000	116.205
37	9.000000	236.054
-25.5	9.500000	0.809479
-21.5	9.500000	186.88
-17.5	9.500000	225.993
-13.5	9.500000	346.883
-9.500000	9.500000	225.761
-5.500000	9.500000	211.933
-1.500000	9.500000	38.8747
2.500000	9.500000	151.735
6.500000	9.500000	164.108
10.5	9.500000	205.277
14.5	9.500000	238.98
18.5	9.500000	208.078
22.5	9.500000	148.867
26.5	9.500000	101.672
30.5	9.500000	179.702
34.5	9.500000	250.709
-28	10	0.000000
-24	10	50.2013
-20	10	239.711
-16	10	249.544
-12	10	316.838
-8.000000	10	227.958
-4.000000	10	235.203
0.000000	10	262.63
4.000000	10	33.585
8.000000	10	236.23
12	10	217.233
16	10	253.591
20	10	249.125
24	10	150.823
28	10	155.79
32	10	190.384
36	10	279.235
-26.5	10.5	5.898974
-22.5	10.5	218.079
-18.5	10.5	19.8859
-14.5	10.5	264.359
-10.5	10.5	260.353
-6.500000	10.5	193.16
-2.500000	10.5	285.032
1.500000	10.5	256.701
5.500000	10.5	1.870448
9.500000	10.5	154.542
13.5	10.5	297.959
17.5	10.5	168.777
21.5	10.5	218.638
25.5	10.5	134.359
29.5	10.5	176.69
33.5	10.5	181.848
37.5	10.5	233.297
-25	11	4.728561
-21	11	63.6611
-17	11	320.514
-13	11	368.793
-9.000000	11	235.031
-5.000000	11	227.854
-1.000000	11	281.273
3.000000	11	129.248
7.000000	11	122.848
11	11	123.983
15	11	253.346
19	11	173.978
23	11	159.186
27	11	152.765
31	11	233.238
35	11	204.3
-27.5	11.5	62.8316
-23.5	11.5	42.5362
-19.5	11.5	32.6286
-15.5	11.5	61.0058
-11.5	11.5	335.897
-7.500000	11.5	199.693
-3.500000	11.5	304.688
0.500000	11.5	231.536
4.500000	11.5	5.798726
8.500000	11.5	274.914
12.5	11.5	318.613
16.5	11.5	215.498
20.5	11.5	212.09
24.5	11.5	139.948
28.5	11.5	158.874
32.5	11.5	254.123
36.5	11.5	224.535
-26	12	13.5283
-22	12	262.046
-18	12	40.2732
-14	12	19.249
-10	12	284.46
-6.000000	12	237.428
-2.000000	12	323.614
2.000000	12	135.903
6.000000	12	2.525009
10	12	93.403
14	12	300.706
18	12	149.43
22	12	155.49
26	12	202.526
30	12	172.315
34	12	199.869
38	12	237.577
-24.5	12.5	0.000000
-20.5	12.5	15.5444
-16.5	12.5	4.871173
-12.5	12.5	326.999
-8.500000	12.5	248.139
-4.500000	12.5	277.148
-0.500000	12.5	279.052
3.500000	12.5	2.021415
7.500000	12.5	253.281
11.5	12.5	179.251
15.5	12.5	227.893
19.5	12.5	178.622
23.5	12.5	191.216
27.5	12.5	210.241
31.5	12.5	276.496
35.5	12.5	184.435
-27	13	4.767515
-23	13	3.916815
-19	13	2.502759
-15	13	0.000000
-11	13	319.739
-7.000000	13	222.924
-3.000000	13	297.911
1.000000	13	235.681
5.000000	13	0.000000
9.000000	13	230.092
13	13	235.118
17	13	209.76
21	13	247.707
25	13	177.847
29	13	201.713
33	13	216.903
37	13	308.09
-25.5	13.5	3.862957
-21.5	13.5	16.5483
-17.5	13.5	0.000000
-13.5	13.5	7.131756
-9.500000	13.5	293.473
-5.500000	13.5	244.625
-1.500000	13.5	206.834
2.500000	13.5	12.1343
6.500000	13.5	13.9417
10.5	13.5	73.1224
14.5	13.5	212.148
18.5	13.5	166.585
22.5	13.5	257.131
26.5	13.5	210.716
30.5	13.5	303.941
34.5	13.5	134.815
-28	14	2.980170
-24	14	4.800273
-20	14	3.433180
-16	14	1.871186
-12	14	233.691
-8.000000	14	236.469
-4.000000	14	312.48
0.000000	14	229.725
4.000000	14	10.6743
8.000000	14	4.344484
12	14	256.522
16	14	225.936
20	14	233.13
24	14	175.392
28	14	205.008
32	14	238.73
36	14	206.603
-26.5	14.5	1.307439
-22.5	14.5	45.6687
-18.5	14.5	1.540964
-14.5	14.5	3.617229
-10.5	14.5	195.483
-6.500000	14.5	158.178
-2.500000	14.5	279.658
1.500000	14.5	12.0078
5.500000	14.5	0.000000
9.500000	14.5	63.1653
13.5	14.5	115.414
17.5	14.5	230.954
21.5	14.5	305.036
25.5	14.5	212.889
29.5	14.5	193.25
33.5	14.5	217.751
37.5	14.5	307.228
-25	15	0.194707
-21	15	4.008913
-17	15	15.0249
-13	15	5.557433
-9.000000	15	201.899
-5.000000	15	9.291250
-1.000000	15	221.253
3.000000	15	6.783410
7.000000	15	0.000000
11	15	198.714
15	15	253.739
19	15	209.817
23	15	258.775
27	15	228.521
31	15	226.84
35	15	174.473
-27.5	15.5	0.000000
-23.5	15.5	1.195313
-19.5	15.5	0.349921
-15.5	15.5	0.000000
-11.5	15.5	68.5285
-7.500000	15.5	10.4941
-3.500000	15.5	9.018468
0.500000	15.5	114.722
4.500000	15.5	20.7529
8.500000	15.5	14.5158
12.5	15.5	199.231
16.5	15.5	270.121
20.5	15.5	246.135
24.5	15.5	222.953
28.5	15.5	238.479
32.5	15.5	266.03
36.5	15.5	63.2685
-26	16	0.429251
-22	16	0.000000
-18	16	23.8973
-14	16	3.127112
-10	16	230.039
-6.000000	16	0.000000
-2.000000	16	8.423180
2.000000	16	88.6601
6.000000	16	3.015298
10	16	272.14
14	16	170.489
18	16	275.634
22	16	250.533
26	16	306.757
30	16	307.135
34	16	273.716
38	16	18.2088
-24.5	16.5	3.764025
-20.5	16.5	0.000000
-16.5	16.5	0.513812
-12.5	16.5	39.7171
-8.500000	16.5	202.988
-4.500000	16.5	0.814660
-0.500000	16.5	5.829077
3.500000	16.5	215.297
7.500000	16.5	11.6238
11.5	16.5	108.356
15.5	16.5	264.681
19.5	16.5	186.737
23.5	16.5	300.24
27.5	16.5	256.732
31.5	16.5	12.5998
35.5	16.5	203.277
-27	17	1.088306
-23	17	4.631431
-19	17	5.229103
-15	17	4.522313
-11	17	260.425
-7.000000	17	4.292883
-3.000000	17	15.0412
1.000000	17	126.184
5.000000	17	111.923
9.000000	17	136.163
13	17	157.989
17	17	294.455
21	17	216.948
25	17	264.29
29	17	229.776
33	17	166.961
37	17	2.657240
-25.5	17.5	9.187840
-21.5	17.5	0.000000
-17.5	17.5	13.768
-13.5	17.5	24.4219
-9.500000	17.5	217.249
-5.500000	17.5	4.895725
-1.500000	17.5	0.394912
2.500000	17.5	241.742
6.500000	17.5	3.124318
10.5	17.5	106.384
14.5	17.5	134.817
18.5	17.5	166.342
22.5	17.5	247.277
26.5	17.5	34.3322
30.5	17.5	13.8153
34.5	17.5	202.319
-28	18	2.344220
-24	18	5.385696
-20	18	2.936884
-16	18	1.615068
-12	18	207.066
-8.000000	18	66.0579
-4.000000	18	2.842063
0.000000	18	20.2153
4.000000	18	155.716
8.000000	18	2.552180
12	18	296.06
16	18	145.796
20	18	133.401
24	18	315.682
28	18	58.3113
32	18	3.882757
36	18	4.338110
-26.5	18.5	27.6281
-22.5	18.5	0.000000
-18.5	18.5	0.000000
-14.5	18.5	92.1753
-10.5	18.5	147.716
-6.500000	18.5	1.210681
-2.500000	18.5	7.596162
1.500000	18.5	181.078
5.500000	18.5	0.899292
9.500000	18.5	31.6591
13.5	18.5	247.311
17.5	18.5	257.656
21.5	18.5	274.846
25.5	18.5	212.302
29.5	18.5	4.113177
33.5	18.5	69.7993
37.5	18.5	0.000000
-25	19	0.818449
-21	19	2.209932
-17	19	0.000000
-13	19	180.426
-9.000000	19	108.859
-5.000000	19	15.5555
-1.000000	19	6.796412
3.000000	19	131.745
7.000000	19	0.000000
11	19	188.542
15	19	143.185
19	19	201.919
23	19	261.236
27	19	4.703132
31	19	9.694034
35	19	48.1893
-27.5	19.5	113.633
-23.5	19.5	24.0784
-19.5	19.5	0.866956
-15.5	19.5	20.1928
-11.5	19.5	34.304
-7.500000	19.5	7.537267
-3.500000	19.5	167.225
0.500000	19.5	174.076
4.500000	19.5	12.9696
8.500000	19.5	2.400255
12.5	19.5	136.013
16.5	19.5	209.452
20.5	19.5	141.947
24.5	19.5	38.1874
28.5	19.5	1.240486
32.5	19.5	213.761
36.5	19.5	7.522185
-26	20	7.231883
-22	20	48.1568
-18	20	0.000000
-14	20	32.3595
-10	20	126.633
-6.000000	20	135.879
-2.000000	20	159.596
2.000000	20	89.3557
6.000000	20	3.591075
10	20	136.391
14	20	168.055
18	20	174.281
22	20	217.874
26	20	2.478927
30	20	4.186617
34	20	271.022
38	20	2.849677