File: data/derived_data/raman/20170920_Gr-NH2_for_Radisurf/20170920 Gr-NH for Radisurf map 1/D pos.txt
#XList		#YList		#IList
-28	-22	1355.26
-24	-22	1347.82
-20	-22	1353.91
-16	-22	1348.55
-12	-22	1349.92
-8.000000	-22	1347.78
-4.000000	-22	1348.94
0.000000	-22	1348.01
4.000000	-22	1356.71
8.000000	-22	1348.34
12	-22	1348.6
16	-22	1349.21
20	-22	1348.09
24	-22	1361.79
28	-22	1358.56
32	-22	1350.11
36	-22	1357.84
-26.5	-21.5	1368.43
-22.5	-21.5	1346.39
-18.5	-21.5	1349.17
-14.5	-21.5	1348.52
-10.5	-21.5	1348.79
-6.500000	-21.5	1346.19
-2.500000	-21.5	1346.87
1.500000	-21.5	1355
5.500000	-21.5	1348.83
9.500000	-21.5	1348.13
13.5	-21.5	1348.59
17.5	-21.5	1349.95
21.5	-21.5	1347.48
25.5	-21.5	1358.61
29.5	-21.5	1352.09
33.5	-21.5	1348.21
37.5	-21.5	1356.15
-25	-21	1349.32
-21	-21	1346.1
-17	-21	1348.93
-13	-21	1349.16
-9.000000	-21	1349.37
-5.000000	-21	1349.82
-1.000000	-21	1347.34
3.000000	-21	1380
7.000000	-21	1347.49
11	-21	1348.21
15	-21	1347.79
19	-21	1348.87
23	-21	1347.46
27	-21	1348.42
31	-21	1349.09
35	-21	1344.57
-27.5	-20.5	1380
-23.5	-20.5	1343.51
-19.5	-20.5	1345.63
-15.5	-20.5	1346.99
-11.5	-20.5	1358.65
-7.500000	-20.5	1349.85
-3.500000	-20.5	1348.69
0.500000	-20.5	1361.03
4.500000	-20.5	1349.08
8.500000	-20.5	1347.4
12.5	-20.5	1347.38
16.5	-20.5	1349.3
20.5	-20.5	1347.3
24.5	-20.5	1349.13
28.5	-20.5	1351.27
32.5	-20.5	1380
36.5	-20.5	1372
-26	-20	1366.66
-22	-20	1349.42
-18	-20	1347.19
-14	-20	1350.23
-10	-20	1348.09
-6.000000	-20	1359.81
-2.000000	-20	1356.52
2.000000	-20	1356.66
6.000000	-20	1347.93
10	-20	1346.86
14	-20	1349.14
18	-20	1353.43
22	-20	1347.45
26	-20	1357
30	-20	1351.26
34	-20	1337.45
38	-20	1320.35
-24.5	-19.5	1346.08
-20.5	-19.5	1346.62
-16.5	-19.5	1347.01
-12.5	-19.5	1344.7
-8.500000	-19.5	1348.6
-4.500000	-19.5	1351.02
-0.500000	-19.5	1357.76
3.500000	-19.5	1348.1
7.500000	-19.5	1347.11
11.5	-19.5	1346.52
15.5	-19.5	1348.44
19.5	-19.5	1348.77
23.5	-19.5	1347.94
27.5	-19.5	1356.39
31.5	-19.5	1352.96
35.5	-19.5	1379.68
-27	-19	1380
-23	-19	1345.43
-19	-19	1345.59
-15	-19	1348.22
-11	-19	1340.54
-7.000000	-19	1352.32
-3.000000	-19	1348.13
1.000000	-19	1354.41
5.000000	-19	1347.09
9.000000	-19	1348.27
13	-19	1349.18
17	-19	1350.07
21	-19	1346.81
25	-19	1355.22
29	-19	1349.45
33	-19	1380
37	-19	1373.65
-25.5	-18.5	1379.92
-21.5	-18.5	1356.91
-17.5	-18.5	1346.96
-13.5	-18.5	1355.85
-9.500000	-18.5	1358.91
-5.500000	-18.5	1353.5
-1.500000	-18.5	1347.93
2.500000	-18.5	1348.1
6.500000	-18.5	1347.83
10.5	-18.5	1347.92
14.5	-18.5	1348.36
18.5	-18.5	1348.46
22.5	-18.5	1347.63
26.5	-18.5	1348.02
30.5	-18.5	1347.74
34.5	-18.5	1364.92
-28	-18	1361.55
-24	-18	1366.51
-20	-18	1356.54
-16	-18	1350.19
-12	-18	1353.04
-8.000000	-18	1355.51
-4.000000	-18	1349.61
0.000000	-18	1348.77
4.000000	-18	1348.89
8.000000	-18	1346.43
12	-18	1345.62
16	-18	1345.83
20	-18	1348.92
24	-18	1349.15
28	-18	1351.72
32	-18	1360.96
36	-18	1353.98
-26.5	-17.5	1347.34
-22.5	-17.5	1357.62
-18.5	-17.5	1350.72
-14.5	-17.5	1348.45
-10.5	-17.5	1364.9
-6.500000	-17.5	1363.2
-2.500000	-17.5	1348.94
1.500000	-17.5	1347.09
5.500000	-17.5	1346.47
9.500000	-17.5	1345.2
13.5	-17.5	1348.67
17.5	-17.5	1350.93
21.5	-17.5	1347.38
25.5	-17.5	1349.11
29.5	-17.5	1351.29
33.5	-17.5	1364.24
37.5	-17.5	1380
-25	-17	1351.07
-21	-17	1333.35
-17	-17	1349.46
-13	-17	1347.77
-9.000000	-17	1365.09
-5.000000	-17	1352.1
-1.000000	-17	1351.61
3.000000	-17	1348.77
7.000000	-17	1348.74
11	-17	1346.28
15	-17	1348.19
19	-17	1347.68
23	-17	1350.76
27	-17	1348.29
31	-17	1347.56
35	-17	1380
-27.5	-16.5	1348.86
-23.5	-16.5	1380
-19.5	-16.5	1347.11
-15.5	-16.5	1348.64
-11.5	-16.5	1350.53
-7.500000	-16.5	1353.87
-3.500000	-16.5	1348.52
0.500000	-16.5	1352.64
4.500000	-16.5	1347.6
8.500000	-16.5	1349.04
12.5	-16.5	1348.84
16.5	-16.5	1348.76
20.5	-16.5	1350.06
24.5	-16.5	1346.87
28.5	-16.5	1348.24
32.5	-16.5	1343.39
36.5	-16.5	1366.61
-26	-16	1357.3
-22	-16	1354.57
-18	-16	1347.78
-14	-16	1348.9
-10	-16	1349.14
-6.000000	-16	1347.54
-2.000000	-16	1348.64
2.000000	-16	1348.93
6.000000	-16	1349.9
10	-16	1348.06
14	-16	1347.21
18	-16	1348.81
22	-16	1348.1
26	-16	1347.53
30	-16	1349.77
34	-16	1355.75
38	-16	1354.73
-24.5	-15.5	1373.01
-20.5	-15.5	1353.32
-16.5	-15.5	1347.13
-12.5	-15.5	1351.8
-8.500000	-15.5	1347.03
-4.500000	-15.5	1345.42
-0.500000	-15.5	1348.42
3.500000	-15.5	1349.34
7.500000	-15.5	1346.57
11.5	-15.5	1346.79
15.5	-15.5	1348.5
19.5	-15.5	1347.92
23.5	-15.5	1352.98
27.5	-15.5	1348.09
31.5	-15.5	1348.87
35.5	-15.5	1349.04
-27	-15	1355.24
-23	-15	1380
-19	-15	1347.11
-15	-15	1347.17
-11	-15	1347.06
-7.000000	-15	1347.86
-3.000000	-15	1346.45
1.000000	-15	1348.47
5.000000	-15	1346.99
9.000000	-15	1347.31
13	-15	1348.47
17	-15	1348.2
21	-15	1347.83
25	-15	1352.66
29	-15	1348.85
33	-15	1367.8
37	-15	1348.98
-25.5	-14.5	1351.24
-21.5	-14.5	1350.97
-17.5	-14.5	1346.68
-13.5	-14.5	1346.78
-9.500000	-14.5	1348.08
-5.500000	-14.5	1343.48
-1.500000	-14.5	1348.75
2.500000	-14.5	1348.7
6.500000	-14.5	1348.99
10.5	-14.5	1350.73
14.5	-14.5	1348.36
18.5	-14.5	1348.28
22.5	-14.5	1349.45
26.5	-14.5	1358.62
30.5	-14.5	1349.28
34.5	-14.5	1352.15
-28	-14	1359.52
-24	-14	1370.62
-20	-14	1359.65
-16	-14	1345.61
-12	-14	1348.12
-8.000000	-14	1345.75
-4.000000	-14	1345.58
0.000000	-14	1349.06
4.000000	-14	1348.7
8.000000	-14	1347.89
12	-14	1346.89
16	-14	1346.66
20	-14	1349.97
24	-14	1347.91
28	-14	1350.86
32	-14	1345.63
36	-14	1349.66
-26.5	-13.5	1349.77
-22.5	-13.5	1380
-18.5	-13.5	1344.61
-14.5	-13.5	1348.32
-10.5	-13.5	1356.07
-6.500000	-13.5	1346.99
-2.500000	-13.5	1346.55
1.500000	-13.5	1348.51
5.500000	-13.5	1349.14
9.500000	-13.5	1349.85
13.5	-13.5	1345.66
17.5	-13.5	1345.81
21.5	-13.5	1368.13
25.5	-13.5	1353.81
29.5	-13.5	1348.31
33.5	-13.5	1351.6
37.5	-13.5	1349.74
-25	-13	1353.66
-21	-13	1348.58
-17	-13	1344.69
-13	-13	1348.06
-9.000000	-13	1347.51
-5.000000	-13	1346
-1.000000	-13	1348.79
3.000000	-13	1348.41
7.000000	-13	1347.56
11	-13	1346.72
15	-13	1350.88
19	-13	1353.78
23	-13	1352.22
27	-13	1345.91
31	-13	1378.79
35	-13	1353.98
-27.5	-12.5	1352.99
-23.5	-12.5	1376.65
-19.5	-12.5	1355.93
-15.5	-12.5	1346.39
-11.5	-12.5	1348.94
-7.500000	-12.5	1345.84
-3.500000	-12.5	1345.67
0.500000	-12.5	1348.42
4.500000	-12.5	1353.86
8.500000	-12.5	1349.04
12.5	-12.5	1357.71
16.5	-12.5	1347.57
20.5	-12.5	1347.67
24.5	-12.5	1346.22
28.5	-12.5	1346.93
32.5	-12.5	1356.97
36.5	-12.5	1350.37
-26	-12	1347.14
-22	-12	1362.64
-18	-12	1348.48
-14	-12	1346.48
-10	-12	1347.16
-6.000000	-12	1345.2
-2.000000	-12	1347.82
2.000000	-12	1348.91
6.000000	-12	1348.23
10	-12	1355.2
14	-12	1359.01
18	-12	1346.92
22	-12	1360.71
26	-12	1347.14
30	-12	1347.51
34	-12	1355.43
38	-12	1347.67
-24.5	-11.5	1380
-20.5	-11.5	1350.56
-16.5	-11.5	1348.52
-12.5	-11.5	1346.22
-8.500000	-11.5	1345.12
-4.500000	-11.5	1347.89
-0.500000	-11.5	1348.53
3.500000	-11.5	1348.54
7.500000	-11.5	1348.23
11.5	-11.5	1338.85
15.5	-11.5	1355.78
19.5	-11.5	1349.15
23.5	-11.5	1345.34
27.5	-11.5	1354.14
31.5	-11.5	1355.46
35.5	-11.5	1350.25
-27	-11	1360.53
-23	-11	1359.01
-19	-11	1347.13
-15	-11	1344.93
-11	-11	1347.72
-7.000000	-11	1346.96
-3.000000	-11	1346.34
1.000000	-11	1348.5
5.000000	-11	1348.86
9.000000	-11	1348.2
13	-11	1375.5
17	-11	1345.29
21	-11	1348.43
25	-11	1348.17
29	-11	1358.08
33	-11	1380
37	-11	1350.44
-25.5	-10.5	1362.37
-21.5	-10.5	1380
-17.5	-10.5	1344.45
-13.5	-10.5	1348.04
-9.500000	-10.5	1347.16
-5.500000	-10.5	1348.67
-1.500000	-10.5	1351.6
2.500000	-10.5	1347.39
6.500000	-10.5	1348.89
10.5	-10.5	1347.26
14.5	-10.5	1380
18.5	-10.5	1349.81
22.5	-10.5	1354.17
26.5	-10.5	1347.06
30.5	-10.5	1352.65
34.5	-10.5	1355.86
-28	-10	1346.15
-24	-10	1352.38
-20	-10	1352.96
-16	-10	1346.2
-12	-10	1347.4
-8.000000	-10	1347.31
-4.000000	-10	1346.07
0.000000	-10	1355.46
4.000000	-10	1348.84
8.000000	-10	1349.59
12	-10	1358.96
16	-10	1363.75
20	-10	1348.96
24	-10	1346.01
28	-10	1358.27
32	-10	1357.15
36	-10	1349.98
-26.5	-9.500000	1357.88
-22.5	-9.500000	1354.24
-18.5	-9.500000	1346.11
-14.5	-9.500000	1346.25
-10.5	-9.500000	1360.35
-6.500000	-9.500000	1348.71
-2.500000	-9.500000	1346.84
1.500000	-9.500000	1347.21
5.500000	-9.500000	1347.98
9.500000	-9.500000	1348.71
13.5	-9.500000	1347.82
17.5	-9.500000	1364.71
21.5	-9.500000	1350.81
25.5	-9.500000	1347.44
29.5	-9.500000	1342.79
33.5	-9.500000	1351.09
37.5	-9.500000	1352.4
-25	-9.000000	1363.09
-21	-9.000000	1353.12
-17	-9.000000	1345.58
-13	-9.000000	1353.23
-9.000000	-9.000000	1346.77
-5.000000	-9.000000	1348.63
-1.000000	-9.000000	1354.92
3.000000	-9.000000	1347.36
7.000000	-9.000000	1351.77
11	-9.000000	1346.22
15	-9.000000	1350.98
19	-9.000000	1349.62
23	-9.000000	1346.55
27	-9.000000	1351.02
31	-9.000000	1350.49
35	-9.000000	1346.7
-27.5	-8.500000	1350.3
-23.5	-8.500000	1346.68
-19.5	-8.500000	1350.45
-15.5	-8.500000	1343.31
-11.5	-8.500000	1358.39
-7.500000	-8.500000	1345.17
-3.500000	-8.500000	1346.79
0.500000	-8.500000	1346.77
4.500000	-8.500000	1349.57
8.500000	-8.500000	1350.55
12.5	-8.500000	1348.93
16.5	-8.500000	1352.03
20.5	-8.500000	1350.56
24.5	-8.500000	1348.44
28.5	-8.500000	1347.41
32.5	-8.500000	1346.89
36.5	-8.500000	1380
-26	-8.000000	1320
-22	-8.000000	1346.24
-18	-8.000000	1344.96
-14	-8.000000	1345.33
-10	-8.000000	1346.05
-6.000000	-8.000000	1347.6
-2.000000	-8.000000	1350.11
2.000000	-8.000000	1346.83
6.000000	-8.000000	1351.27
10	-8.000000	1345.96
14	-8.000000	1348.81
18	-8.000000	1348.58
22	-8.000000	1347.88
26	-8.000000	1347.25
30	-8.000000	1348.53
34	-8.000000	1350.77
38	-8.000000	1342.33
-24.5	-7.500000	1348.93
-20.5	-7.500000	1350.69
-16.5	-7.500000	1344.48
-12.5	-7.500000	1349.08
-8.500000	-7.500000	1348.46
-4.500000	-7.500000	1348.23
-0.500000	-7.500000	1348.22
3.500000	-7.500000	1349.33
7.500000	-7.500000	1351.88
11.5	-7.500000	1347.4
15.5	-7.500000	1348.05
19.5	-7.500000	1355.99
23.5	-7.500000	1352.15
27.5	-7.500000	1348.72
31.5	-7.500000	1351.29
35.5	-7.500000	1347.1
-27	-7.000000	1356.03
-23	-7.000000	1346.88
-19	-7.000000	1352.84
-15	-7.000000	1346.07
-11	-7.000000	1353.63
-7.000000	-7.000000	1348.43
-3.000000	-7.000000	1349.47
1.000000	-7.000000	1346.59
5.000000	-7.000000	1351.57
9.000000	-7.000000	1347.55
13	-7.000000	1349.57
17	-7.000000	1348
21	-7.000000	1348.46
25	-7.000000	1354.33
29	-7.000000	1350.43
33	-7.000000	1348.19
37	-7.000000	1347.46
-25.5	-6.500000	1338.38
-21.5	-6.500000	1347.56
-17.5	-6.500000	1347.94
-13.5	-6.500000	1345.01
-9.500000	-6.500000	1347.38
-5.500000	-6.500000	1346.81
-1.500000	-6.500000	1346.73
2.500000	-6.500000	1349.49
6.500000	-6.500000	1354.12
10.5	-6.500000	1348.93
14.5	-6.500000	1348
18.5	-6.500000	1349.02
22.5	-6.500000	1348.2
26.5	-6.500000	1356
30.5	-6.500000	1344.85
34.5	-6.500000	1346.56
-28	-6.000000	1351.03
-24	-6.000000	1348.53
-20	-6.000000	1347.58
-16	-6.000000	1346.44
-12	-6.000000	1346.18
-8.000000	-6.000000	1345.61
-4.000000	-6.000000	1348.75
0.000000	-6.000000	1350.21
4.000000	-6.000000	1348.11
8.000000	-6.000000	1347.93
12	-6.000000	1347.08
16	-6.000000	1349.7
20	-6.000000	1346.89
24	-6.000000	1346.03
28	-6.000000	1348.08
32	-6.000000	1352.99
36	-6.000000	1348.4
-26.5	-5.500000	1353.86
-22.5	-5.500000	1345.45
-18.5	-5.500000	1348.7
-14.5	-5.500000	1345.91
-10.5	-5.500000	1360.25
-6.500000	-5.500000	1339.86
-2.500000	-5.500000	1357.5
1.500000	-5.500000	1348.76
5.500000	-5.500000	1351.03
9.500000	-5.500000	1348.95
13.5	-5.500000	1348.51
17.5	-5.500000	1346.87
21.5	-5.500000	1346.96
25.5	-5.500000	1349.05
29.5	-5.500000	1355.08
33.5	-5.500000	1349.61
37.5	-5.500000	1349.66
-25	-5.000000	1380
-21	-5.000000	1348.54
-17	-5.000000	1349.2
-13	-5.000000	1352.08
-9.000000	-5.000000	1369.83
-5.000000	-5.000000	1358.55
-1.000000	-5.000000	1347.51
3.000000	-5.000000	1348.34
7.000000	-5.000000	1348.83
11	-5.000000	1345.76
15	-5.000000	1346.47
19	-5.000000	1345.26
23	-5.000000	1347.56
27	-5.000000	1349
31	-5.000000	1342.29
35	-5.000000	1346.72
-27.5	-4.500000	1348.66
-23.5	-4.500000	1346.74
-19.5	-4.500000	1348.14
-15.5	-4.500000	1348.51
-11.5	-4.500000	1366.26
-7.500000	-4.500000	1361.82
-3.500000	-4.500000	1352.89
0.500000	-4.500000	1349.55
4.500000	-4.500000	1347.44
8.500000	-4.500000	1348.61
12.5	-4.500000	1348.16
16.5	-4.500000	1345.8
20.5	-4.500000	1344.78
24.5	-4.500000	1347.45
28.5	-4.500000	1349.25
32.5	-4.500000	1348.83
36.5	-4.500000	1349.35
-26	-4.000000	1359.14
-22	-4.000000	1348.5
-18	-4.000000	1348.17
-14	-4.000000	1346.14
-10	-4.000000	1335.67
-6.000000	-4.000000	1380
-2.000000	-4.000000	1345.22
2.000000	-4.000000	1350.47
6.000000	-4.000000	1354.24
10	-4.000000	1351.03
14	-4.000000	1348.01
18	-4.000000	1348.57
22	-4.000000	1347.86
26	-4.000000	1348.84
30	-4.000000	1349.1
34	-4.000000	1348.82
38	-4.000000	1347.43
-24.5	-3.500000	1344.68
-20.5	-3.500000	1347.68
-16.5	-3.500000	1346.99
-12.5	-3.500000	1349.16
-8.500000	-3.500000	1362
-4.500000	-3.500000	1380
-0.500000	-3.500000	1348.48
3.500000	-3.500000	1350.33
7.500000	-3.500000	1351.07
11.5	-3.500000	1349.79
15.5	-3.500000	1348.87
19.5	-3.500000	1349.21
23.5	-3.500000	1348.33
27.5	-3.500000	1349.55
31.5	-3.500000	1360.69
35.5	-3.500000	1351.21
-27	-3.000000	1350.29
-23	-3.000000	1349.69
-19	-3.000000	1345.55
-15	-3.000000	1347.83
-11	-3.000000	1380
-7.000000	-3.000000	1380
-3.000000	-3.000000	1351.12
1.000000	-3.000000	1348.61
5.000000	-3.000000	1349.87
9.000000	-3.000000	1353.11
13	-3.000000	1348.83
17	-3.000000	1348.51
21	-3.000000	1348.24
25	-3.000000	1347.46
29	-3.000000	1349.45
33	-3.000000	1341.34
37	-3.000000	1350.9
-25.5	-2.500000	1362.58
-21.5	-2.500000	1354.01
-17.5	-2.500000	1349.9
-13.5	-2.500000	1349.72
-9.500000	-2.500000	1346.37
-5.500000	-2.500000	1380
-1.500000	-2.500000	1347.79
2.500000	-2.500000	1347.98
6.500000	-2.500000	1356.79
10.5	-2.500000	1346.41
14.5	-2.500000	1348.28
18.5	-2.500000	1347.93
22.5	-2.500000	1349.01
26.5	-2.500000	1348.94
30.5	-2.500000	1351.74
34.5	-2.500000	1348.82
-28	-2.000000	1348.76
-24	-2.000000	1359.4
-20	-2.000000	1362.33
-16	-2.000000	1350.41
-12	-2.000000	1355.55
-8.000000	-2.000000	1357.22
-4.000000	-2.000000	1379.57
0.000000	-2.000000	1347
4.000000	-2.000000	1380
8.000000	-2.000000	1347.47
12	-2.000000	1347.57
16	-2.000000	1348.21
20	-2.000000	1348.01
24	-2.000000	1348.37
28	-2.000000	1348.22
32	-2.000000	1354.75
36	-2.000000	1347.38
-26.5	-1.500000	1349.85
-22.5	-1.500000	1348.09
-18.5	-1.500000	1348.89
-14.5	-1.500000	1347.49
-10.5	-1.500000	1350.35
-6.500000	-1.500000	1380
-2.500000	-1.500000	1355.71
1.500000	-1.500000	1348.03
5.500000	-1.500000	1350.57
9.500000	-1.500000	1349.65
13.5	-1.500000	1339.29
17.5	-1.500000	1347.95
21.5	-1.500000	1348.91
25.5	-1.500000	1348.78
29.5	-1.500000	1349.56
33.5	-1.500000	1360.5
37.5	-1.500000	1348.1
-25	-1.000000	1360.13
-21	-1.000000	1352.7
-17	-1.000000	1349.55
-13	-1.000000	1353.93
-9.000000	-1.000000	1345.76
-5.000000	-1.000000	1320
-1.000000	-1.000000	1348.18
3.000000	-1.000000	1357.09
7.000000	-1.000000	1343.17
11	-1.000000	1348.27
15	-1.000000	1348.52
19	-1.000000	1348.92
23	-1.000000	1348.1
27	-1.000000	1348.29
31	-1.000000	1347.59
35	-1.000000	1348.41
-27.5	-0.500000	1348.96
-23.5	-0.500000	1380
-19.5	-0.500000	1356.46
-15.5	-0.500000	1350.72
-11.5	-0.500000	1347.86
-7.500000	-0.500000	1362.27
-3.500000	-0.500000	1352.9
0.500000	-0.500000	1352.73
4.500000	-0.500000	1359.09
8.500000	-0.500000	1352.5
12.5	-0.500000	1348.5
16.5	-0.500000	1348.54
20.5	-0.500000	1348.04
24.5	-0.500000	1346.63
28.5	-0.500000	1347.43
32.5	-0.500000	1357.22
36.5	-0.500000	1350.39
-26	0.000000	1350.02
-22	0.000000	1358.08
-18	0.000000	1348.62
-14	0.000000	1348.4
-10	0.000000	1347.52
-6.000000	0.000000	1380
-2.000000	0.000000	1345.87
2.000000	0.000000	1354
6.000000	0.000000	1349.28
10	0.000000	1346.33
14	0.000000	1347.8
18	0.000000	1349.46
22	0.000000	1347.6
26	0.000000	1348.21
30	0.000000	1347.98
34	0.000000	1371.64
38	0.000000	1347.43
-24.5	0.500000	1349.5
-20.5	0.500000	1349.81
-16.5	0.500000	1350
-12.5	0.500000	1347.29
-8.500000	0.500000	1346.16
-4.500000	0.500000	1340.58
-0.500000	0.500000	1349
3.500000	0.500000	1349.17
7.500000	0.500000	1348.24
11.5	0.500000	1348.18
15.5	0.500000	1347.83
19.5	0.500000	1348.44
23.5	0.500000	1348.19
27.5	0.500000	1347.21
31.5	0.500000	1348.33
35.5	0.500000	1337.23
-27	1.000000	1350.33
-23	1.000000	1349.63
-19	1.000000	1350.04
-15	1.000000	1348.65
-11	1.000000	1346.75
-7.000000	1.000000	1353.8
-3.000000	1.000000	1348.62
1.000000	1.000000	1345.32
5.000000	1.000000	1348.6
9.000000	1.000000	1346.59
13	1.000000	1349.26
17	1.000000	1347.96
21	1.000000	1348.52
25	1.000000	1348.29
29	1.000000	1347.02
33	1.000000	1371.84
37	1.000000	1349.17
-25.5	1.500000	1352.71
-21.5	1.500000	1348.99
-17.5	1.500000	1348.76
-13.5	1.500000	1348.06
-9.500000	1.500000	1348.3
-5.500000	1.500000	1379.26
-1.500000	1.500000	1348.94
2.500000	1.500000	1354.06
6.500000	1.500000	1347.58
10.5	1.500000	1347.68
14.5	1.500000	1348.52
18.5	1.500000	1347.82
22.5	1.500000	1348.61
26.5	1.500000	1347.87
30.5	1.500000	1349.36
34.5	1.500000	1379.75
-28	2.000000	1351.27
-24	2.000000	1351.49
-20	2.000000	1351.56
-16	2.000000	1349.21
-12	2.000000	1348.51
-8.000000	2.000000	1349.58
-4.000000	2.000000	1351.11
0.000000	2.000000	1351.31
4.000000	2.000000	1347.19
8.000000	2.000000	1348.5
12	2.000000	1347.91
16	2.000000	1344.84
20	2.000000	1348.23
24	2.000000	1348.68
28	2.000000	1347.65
32	2.000000	1353.34
36	2.000000	1349.42
-26.5	2.500000	1352.17
-22.5	2.500000	1351.72
-18.5	2.500000	1347.15
-14.5	2.500000	1348.49
-10.5	2.500000	1347.58
-6.500000	2.500000	1355.01
-2.500000	2.500000	1353
1.500000	2.500000	1348.6
5.500000	2.500000	1345.4
9.500000	2.500000	1349.73
13.5	2.500000	1348.79
17.5	2.500000	1346.53
21.5	2.500000	1348.23
25.5	2.500000	1349.35
29.5	2.500000	1347.85
33.5	2.500000	1377.57
37.5	2.500000	1354.44
-25	3.000000	1356.32
-21	3.000000	1348.88
-17	3.000000	1347.91
-13	3.000000	1346.13
-9.000000	3.000000	1350.02
-5.000000	3.000000	1357.28
-1.000000	3.000000	1349.7
3.000000	3.000000	1346.78
7.000000	3.000000	1349.22
11	3.000000	1347.23
15	3.000000	1347.58
19	3.000000	1343.62
23	3.000000	1345.93
27	3.000000	1345.53
31	3.000000	1347.93
35	3.000000	1370.71
-27.5	3.500000	1349.49
-23.5	3.500000	1353.57
-19.5	3.500000	1346.2
-15.5	3.500000	1348.11
-11.5	3.500000	1348.89
-7.500000	3.500000	1348.16
-3.500000	3.500000	1349.43
0.500000	3.500000	1348.24
4.500000	3.500000	1348.03
8.500000	3.500000	1351.11
12.5	3.500000	1346.27
16.5	3.500000	1343.85
20.5	3.500000	1346.91
24.5	3.500000	1349.19
28.5	3.500000	1348.01
32.5	3.500000	1366.1
36.5	3.500000	1348.06
-26	4.000000	1353.67
-22	4.000000	1350.64
-18	4.000000	1347.61
-14	4.000000	1348.95
-10	4.000000	1347.93
-6.000000	4.000000	1349.36
-2.000000	4.000000	1348.9
2.000000	4.000000	1352.62
6.000000	4.000000	1348.47
10	4.000000	1349.94
14	4.000000	1346.65
18	4.000000	1349.17
22	4.000000	1345.31
26	4.000000	1347.19
30	4.000000	1349.81
34	4.000000	1380
38	4.000000	1352.58
-24.5	4.500000	1348.77
-20.5	4.500000	1349.36
-16.5	4.500000	1350.55
-12.5	4.500000	1348.05
-8.500000	4.500000	1349.95
-4.500000	4.500000	1350.01
-0.500000	4.500000	1349.93
3.500000	4.500000	1348.87
7.500000	4.500000	1348.01
11.5	4.500000	1347.35
15.5	4.500000	1346.7
19.5	4.500000	1348.36
23.5	4.500000	1344.6
27.5	4.500000	1347.29
31.5	4.500000	1372.55
35.5	4.500000	1349.52
-27	5.000000	1349.76
-23	5.000000	1348.76
-19	5.000000	1349.3
-15	5.000000	1349.77
-11	5.000000	1348.76
-7.000000	5.000000	1350.99
-3.000000	5.000000	1351.18
1.000000	5.000000	1348.56
5.000000	5.000000	1348.6
9.000000	5.000000	1350.06
13	5.000000	1347.33
17	5.000000	1345.57
21	5.000000	1349.54
25	5.000000	1348.71
29	5.000000	1348.29
33	5.000000	1358.37
37	5.000000	1346.94
-25.5	5.500000	1346.61
-21.5	5.500000	1350.98
-17.5	5.500000	1350.91
-13.5	5.500000	1348.74
-9.500000	5.500000	1346.79
-5.500000	5.500000	1350.37
-1.500000	5.500000	1350.4
2.500000	5.500000	1348.54
6.500000	5.500000	1349.77
10.5	5.500000	1350.58
14.5	5.500000	1346.98
18.5	5.500000	1347.17
22.5	5.500000	1349.17
26.5	5.500000	1348.1
30.5	5.500000	1350.4
34.5	5.500000	1348.06
-28	6.000000	1348.71
-24	6.000000	1356.52
-20	6.000000	1347.77
-16	6.000000	1348.62
-12	6.000000	1348.79
-8.000000	6.000000	1349.21
-4.000000	6.000000	1348.69
0.000000	6.000000	1351.08
4.000000	6.000000	1348.83
8.000000	6.000000	1350.72
12	6.000000	1350.21
16	6.000000	1348.55
20	6.000000	1348.26
24	6.000000	1349.05
28	6.000000	1346.35
32	6.000000	1357.06
36	6.000000	1349.11
-26.5	6.500000	1351.89
-22.5	6.500000	1347.5
-18.5	6.500000	1348.71
-14.5	6.500000	1349.46
-10.5	6.500000	1349.1
-6.500000	6.500000	1348.56
-2.500000	6.500000	1350.23
1.500000	6.500000	1348.63
5.500000	6.500000	1347.79
9.500000	6.500000	1350.55
13.5	6.500000	1348.92
17.5	6.500000	1347.91
21.5	6.500000	1349.26
25.5	6.500000	1349.59
29.5	6.500000	1348.44
33.5	6.500000	1349.68
37.5	6.500000	1348.19
-25	7.000000	1358.36
-21	7.000000	1349.63
-17	7.000000	1348.58
-13	7.000000	1349.09
-9.000000	7.000000	1348.98
-5.000000	7.000000	1349.86
-1.000000	7.000000	1349.5
3.000000	7.000000	1349.5
7.000000	7.000000	1348.27
11	7.000000	1350.92
15	7.000000	1347.98
19	7.000000	1348.38
23	7.000000	1349.66
27	7.000000	1349.48
31	7.000000	1348.79
35	7.000000	1347.92
-27.5	7.500000	1356.15
-23.5	7.500000	1354.73
-19.5	7.500000	1348.14
-15.5	7.500000	1350.46
-11.5	7.500000	1350.84
-7.500000	7.500000	1347.85
-3.500000	7.500000	1349.73
0.500000	7.500000	1348.57
4.500000	7.500000	1347.92
8.500000	7.500000	1348.22
12.5	7.500000	1345.86
16.5	7.500000	1344.85
20.5	7.500000	1348.85
24.5	7.500000	1348.89
28.5	7.500000	1344.48
32.5	7.500000	1348.99
36.5	7.500000	1347.86
-26	8.000000	1348.63
-22	8.000000	1351.08
-18	8.000000	1348.23
-14	8.000000	1346.59
-10	8.000000	1349.59
-6.000000	8.000000	1348.66
-2.000000	8.000000	1350.75
2.000000	8.000000	1346.73
6.000000	8.000000	1348.33
10	8.000000	1349.66
14	8.000000	1346.4
18	8.000000	1348.64
22	8.000000	1349.18
26	8.000000	1350.18
30	8.000000	1348.8
34	8.000000	1350.22
38	8.000000	1347.75
-24.5	8.500000	1378.39
-20.5	8.500000	1347.51
-16.5	8.500000	1348.03
-12.5	8.500000	1349.24
-8.500000	8.500000	1349.82
-4.500000	8.500000	1348.03
-0.500000	8.500000	1348.28
3.500000	8.500000	1349.81
7.500000	8.500000	1349.26
11.5	8.500000	1345.63
15.5	8.500000	1351.26
19.5	8.500000	1348.02
23.5	8.500000	1347.73
27.5	8.500000	1348.3
31.5	8.500000	1347.37
35.5	8.500000	1346.59
-27	9.000000	1350.81
-23	9.000000	1352.95
-19	9.000000	1350.56
-15	9.000000	1347.54
-11	9.000000	1350.19
-7.000000	9.000000	1349.11
-3.000000	9.000000	1347.91
1.000000	9.000000	1350.33
5.000000	9.000000	1347.46
9.000000	9.000000	1348.13
13	9.000000	1346.4
17	9.000000	1348.36
21	9.000000	1348.51
25	9.000000	1348.54
29	9.000000	1348.21
33	9.000000	1349.16
37	9.000000	1345.98
-25.5	9.500000	1348.04
-21.5	9.500000	1350.4
-17.5	9.500000	1349.93
-13.5	9.500000	1348.33
-9.500000	9.500000	1348.2
-5.500000	9.500000	1348.21
-1.500000	9.500000	1357.08
2.500000	9.500000	1349.05
6.500000	9.500000	1346.73
10.5	9.500000	1348.99
14.5	9.500000	1348.29
18.5	9.500000	1344.24
22.5	9.500000	1346.7
26.5	9.500000	1349.09
30.5	9.500000	1348.17
34.5	9.500000	1346.51
-28	10	1380
-24	10	1353.74
-20	10	1348.95
-16	10	1348.76
-12	10	1347.38
-8.000000	10	1349.14
-4.000000	10	1348.2
0.000000	10	1348.64
4.000000	10	1350.07
8.000000	10	1346.76
12	10	1349.04
16	10	1349.51
20	10	1348.38
24	10	1348.52
28	10	1346.31
32	10	1348.83
36	10	1346.81
-26.5	10.5	1338.22
-22.5	10.5	1350.4
-18.5	10.5	1353.23
-14.5	10.5	1348.45
-10.5	10.5	1347.21
-6.500000	10.5	1347.83
-2.500000	10.5	1347.02
1.500000	10.5	1349.36
5.500000	10.5	1373.05
9.500000	10.5	1349.03
13.5	10.5	1346.25
17.5	10.5	1348.51
21.5	10.5	1347.93
25.5	10.5	1348.15
29.5	10.5	1347.65
33.5	10.5	1346.63
37.5	10.5	1346.7
-25	11	1367.52
-21	11	1353.32
-17	11	1347.99
-13	11	1348.16
-9.000000	11	1348.86
-5.000000	11	1348.81
-1.000000	11	1348.7
3.000000	11	1346.56
7.000000	11	1350.25
11	11	1347.65
15	11	1347.33
19	11	1349.41
23	11	1349.55
27	11	1347.62
31	11	1348.07
35	11	1349.74
-27.5	11.5	1349.06
-23.5	11.5	1346.65
-19.5	11.5	1348.42
-15.5	11.5	1349.66
-11.5	11.5	1348.03
-7.500000	11.5	1348.84
-3.500000	11.5	1347.4
0.500000	11.5	1349.59
4.500000	11.5	1368.84
8.500000	11.5	1346.77
12.5	11.5	1345.33
16.5	11.5	1346.37
20.5	11.5	1349.19
24.5	11.5	1348.32
28.5	11.5	1348.06
32.5	11.5	1348
36.5	11.5	1347.81
-26	12	1349.22
-22	12	1349.06
-18	12	1347.99
-14	12	1359.85
-10	12	1348.53
-6.000000	12	1348.09
-2.000000	12	1345.57
2.000000	12	1349.05
6.000000	12	1360.85
10	12	1350.91
14	12	1345.26
18	12	1349.02
22	12	1348.16
26	12	1347.3
30	12	1347.91
34	12	1347.62
38	12	1347.51
-24.5	12.5	1380
-20.5	12.5	1346.99
-16.5	12.5	1364.88
-12.5	12.5	1349.19
-8.500000	12.5	1347.35
-4.500000	12.5	1349.43
-0.500000	12.5	1349.12
3.500000	12.5	1359.92
7.500000	12.5	1345.48
11.5	12.5	1348.93
15.5	12.5	1347.03
19.5	12.5	1349.72
23.5	12.5	1348.65
27.5	12.5	1346.88
31.5	12.5	1347.91
35.5	12.5	1347.79
-27	13	1341.63
-23	13	1359.29
-19	13	1360.56
-15	13	1320
-11	13	1349.08
-7.000000	13	1347.95
-3.000000	13	1348.08
1.000000	13	1348.71
5.000000	13	1355.42
9.000000	13	1348.21
13	13	1345.68
17	13	1346.71
21	13	1348.88
25	13	1349.23
29	13	1346.69
33	13	1347
37	13	1347.23
-25.5	13.5	1362.64
-21.5	13.5	1351.69
-17.5	13.5	1377.45
-13.5	13.5	1371.06
-9.500000	13.5	1348.31
-5.500000	13.5	1347.96
-1.500000	13.5	1348.94
2.500000	13.5	1353.24
6.500000	13.5	1367.8
10.5	13.5	1349.46
14.5	13.5	1348.32
18.5	13.5	1348.28
22.5	13.5	1346.57
26.5	13.5	1348.27
30.5	13.5	1347.03
34.5	13.5	1349.43
-28	14	1320.4
-24	14	1323.77
-20	14	1380
-16	14	1373.58
-12	14	1348.87
-8.000000	14	1347.16
-4.000000	14	1346.41
0.000000	14	1348.44
4.000000	14	1348.3
8.000000	14	1352.7
12	14	1348.49
16	14	1346.85
20	14	1348.18
24	14	1348.03
28	14	1347.32
32	14	1347.53
36	14	1348.05
-26.5	14.5	1365.31
-22.5	14.5	1345.77
-18.5	14.5	1327.44
-14.5	14.5	1379.87
-10.5	14.5	1350.11
-6.500000	14.5	1348.46
-2.500000	14.5	1347.95
1.500000	14.5	1352.98
5.500000	14.5	1380
9.500000	14.5	1354.21
13.5	14.5	1349.83
17.5	14.5	1347.15
21.5	14.5	1347.8
25.5	14.5	1348.5
29.5	14.5	1347.96
33.5	14.5	1347.99
37.5	14.5	1347.47
-25	15	1380
-21	15	1380
-17	15	1353.81
-13	15	1359.59
-9.000000	15	1348.79
-5.000000	15	1359.11
-1.000000	15	1345.83
3.000000	15	1363
7.000000	15	1380
11	15	1350.23
15	15	1346.31
19	15	1348.82
23	15	1347.24
27	15	1346.49
31	15	1348.42
35	15	1348.52
-27.5	15.5	1343.22
-23.5	15.5	1337.64
-19.5	15.5	1380
-15.5	15.5	1380
-11.5	15.5	1355.19
-7.500000	15.5	1353.09
-3.500000	15.5	1363.24
0.500000	15.5	1350.23
4.500000	15.5	1360.49
8.500000	15.5	1350.26
12.5	15.5	1347.29
16.5	15.5	1346.68
20.5	15.5	1348.02
24.5	15.5	1348.72
28.5	15.5	1347.1
32.5	15.5	1347.99
36.5	15.5	1353.25
-26	16	1320
-22	16	1350.48
-18	16	1378.94
-14	16	1380
-10	16	1348.5
-6.000000	16	1380
-2.000000	16	1358.54
2.000000	16	1351.41
6.000000	16	1351.23
10	16	1348.88
14	16	1349.94
18	16	1346.19
22	16	1348.02
26	16	1347.26
30	16	1348.27
34	16	1347.28
38	16	1358.28
-24.5	16.5	1376.65
-20.5	16.5	1320
-16.5	16.5	1365.77
-12.5	16.5	1353.5
-8.500000	16.5	1349.44
-4.500000	16.5	1320
-0.500000	16.5	1359.61
3.500000	16.5	1346.98
7.500000	16.5	1376.98
11.5	16.5	1353.17
15.5	16.5	1349.2
19.5	16.5	1349.14
23.5	16.5	1347.35
27.5	16.5	1346.61
31.5	16.5	1359.67
35.5	16.5	1347.53
-27	17	1380
-23	17	1376.17
-19	17	1373.79
-15	17	1352.15
-11	17	1348.6
-7.000000	17	1355.93
-3.000000	17	1377.05
1.000000	17	1354.25
5.000000	17	1348.58
9.000000	17	1347.24
13	17	1350.1
17	17	1348.31
21	17	1347.45
25	17	1347.68
29	17	1345.18
33	17	1346.27
37	17	1380
-25.5	17.5	1378.52
-21.5	17.5	1355.42
-17.5	17.5	1380
-13.5	17.5	1358.26
-9.500000	17.5	1349.77
-5.500000	17.5	1350.34
-1.500000	17.5	1320
2.500000	17.5	1348.98
6.500000	17.5	1356.91
10.5	17.5	1351.79
14.5	17.5	1348.15
18.5	17.5	1350.17
22.5	17.5	1348.03
26.5	17.5	1356.43
30.5	17.5	1354.74
34.5	17.5	1347.38
-28	18	1376.52
-24	18	1375.58
-20	18	1371.47
-16	18	1380
-12	18	1348.01
-8.000000	18	1347.47
-4.000000	18	1368.73
0.000000	18	1355.44
4.000000	18	1348.25
8.000000	18	1364.26
12	18	1348.31
16	18	1349.92
20	18	1349.39
24	18	1348.52
28	18	1348.53
32	18	1345.72
36	18	1368.09
-26.5	18.5	1354.96
-22.5	18.5	1354.18
-18.5	18.5	1380
-14.5	18.5	1346.6
-10.5	18.5	1348.18
-6.500000	18.5	1351.22
-2.500000	18.5	1353.6
1.500000	18.5	1349.66
5.500000	18.5	1380
9.500000	18.5	1354.02
13.5	18.5	1346.42
17.5	18.5	1348.87
21.5	18.5	1348.68
25.5	18.5	1349.14
29.5	18.5	1368.77
33.5	18.5	1354.41
37.5	18.5	1378.52
-25	19	1380
-21	19	1372.7
-17	19	1380
-13	19	1347.93
-9.000000	19	1348.1
-5.000000	19	1356.28
-1.000000	19	1373.08
3.000000	19	1348.45
7.000000	19	1320
11	19	1350.2
15	19	1348.8
19	19	1349.19
23	19	1348.08
27	19	1361.4
31	19	1347.41
35	19	1351.35
-27.5	19.5	1351.28
-23.5	19.5	1320
-19.5	19.5	1320
-15.5	19.5	1379.91
-11.5	19.5	1355.33
-7.500000	19.5	1358.83
-3.500000	19.5	1350.36
0.500000	19.5	1348.93
4.500000	19.5	1353.57
8.500000	19.5	1361.78
12.5	19.5	1345.76
16.5	19.5	1348.9
20.5	19.5	1348.36
24.5	19.5	1357.35
28.5	19.5	1372.56
32.5	19.5	1346.52
36.5	19.5	1362.53
-26	20	1347.9
-22	20	1358.59
-18	20	1362.49
-14	20	1325.26
-10	20	1349.76
-6.000000	20	1352.98
-2.000000	20	1346.9
2.000000	20	1349.8
6.000000	20	1340.83
10	20	1350.31
14	20	1347.24
18	20	1348.75
22	20	1347.34
26	20	1338.63
30	20	1339.8
34	20	1346.03
38	20	1340.71