File: data/derived_data/raman/20170920_Gr-NH2_for_Radisurf/20170920 Gr-NH for Radisurf map 1/DDp FWHM.txt
#XList		#YList		#IList
-28	-22	0.639823
-24	-22	155.275
-20	-22	177.037
-16	-22	148.286
-12	-22	175.788
-8.000000	-22	153.707
-4.000000	-22	183.102
0.000000	-22	176.821
4.000000	-22	150.862
8.000000	-22	185.032
12	-22	171.891
16	-22	173.771
20	-22	174.09
24	-22	146.399
28	-22	125.557
32	-22	163.7
36	-22	0.639823
-26.5	-21.5	25.5033
-22.5	-21.5	177.009
-18.5	-21.5	176.27
-14.5	-21.5	195.033
-10.5	-21.5	184.198
-6.500000	-21.5	133.465
-2.500000	-21.5	177.383
1.500000	-21.5	162.078
5.500000	-21.5	186.973
9.500000	-21.5	189.059
13.5	-21.5	164.363
17.5	-21.5	125.882
21.5	-21.5	155.021
25.5	-21.5	71.4153
29.5	-21.5	107.977
33.5	-21.5	166.77
37.5	-21.5	0.639823
-25	-21	163.924
-21	-21	185.208
-17	-21	169.943
-13	-21	173.208
-9.000000	-21	206.441
-5.000000	-21	162.493
-1.000000	-21	152.339
3.000000	-21	0.944608
7.000000	-21	149.133
11	-21	177.132
15	-21	166.999
19	-21	185.105
23	-21	185.44
27	-21	169.929
31	-21	188.137
35	-21	34.9329
-27.5	-20.5	711.949
-23.5	-20.5	202.615
-19.5	-20.5	154.349
-15.5	-20.5	176.713
-11.5	-20.5	0.639823
-7.500000	-20.5	181.825
-3.500000	-20.5	155.063
0.500000	-20.5	130.056
4.500000	-20.5	176.671
8.500000	-20.5	140.035
12.5	-20.5	204.241
16.5	-20.5	161.57
20.5	-20.5	201.815
24.5	-20.5	182.353
28.5	-20.5	172.107
32.5	-20.5	420.591
36.5	-20.5	0.639823
-26	-20	0.639823
-22	-20	176.982
-18	-20	169.636
-14	-20	120.632
-10	-20	207.97
-6.000000	-20	75.7957
-2.000000	-20	178.477
2.000000	-20	0.639823
6.000000	-20	197.074
10	-20	184.471
14	-20	162.724
18	-20	214.678
22	-20	168.797
26	-20	31.8857
30	-20	97.0323
34	-20	722.715
38	-20	0.639823
-24.5	-19.5	165.638
-20.5	-19.5	208.302
-16.5	-19.5	147.487
-12.5	-19.5	153.192
-8.500000	-19.5	134.091
-4.500000	-19.5	178.199
-0.500000	-19.5	0.693213
3.500000	-19.5	155.758
7.500000	-19.5	137.109
11.5	-19.5	159.846
15.5	-19.5	164.444
19.5	-19.5	180.566
23.5	-19.5	171.555
27.5	-19.5	126.631
31.5	-19.5	146.762
35.5	-19.5	214.433
-27	-19	0.639823
-23	-19	162.416
-19	-19	195.514
-15	-19	118.907
-11	-19	0.639823
-7.000000	-19	286.404
-3.000000	-19	143.607
1.000000	-19	269.887
5.000000	-19	157.48
9.000000	-19	159.987
13	-19	143.299
17	-19	162.71
21	-19	177.28
25	-19	111.755
29	-19	155.18
33	-19	11.9658
37	-19	242.096
-25.5	-18.5	1.300261
-21.5	-18.5	164.667
-17.5	-18.5	153.27
-13.5	-18.5	78.8902
-9.500000	-18.5	0.639823
-5.500000	-18.5	157.361
-1.500000	-18.5	169.632
2.500000	-18.5	175.044
6.500000	-18.5	186.336
10.5	-18.5	172.014
14.5	-18.5	186.958
18.5	-18.5	179.688
22.5	-18.5	165.564
26.5	-18.5	139.093
30.5	-18.5	160.058
34.5	-18.5	0.639823
-28	-18	53.3065
-24	-18	29.3722
-20	-18	166.924
-16	-18	135.204
-12	-18	2.841328
-8.000000	-18	1092.02
-4.000000	-18	180.671
0.000000	-18	123.152
4.000000	-18	195.112
8.000000	-18	149.467
12	-18	137.392
16	-18	196.092
20	-18	191.111
24	-18	164.766
28	-18	120.555
32	-18	0.639823
36	-18	0.680674
-26.5	-17.5	1620.39
-22.5	-17.5	0.639823
-18.5	-17.5	456.675
-14.5	-17.5	141.774
-10.5	-17.5	3.289995
-6.500000	-17.5	95.3946
-2.500000	-17.5	159.433
1.500000	-17.5	122.005
5.500000	-17.5	132.021
9.500000	-17.5	193.033
13.5	-17.5	196.681
17.5	-17.5	176.898
21.5	-17.5	161.179
25.5	-17.5	128.584
29.5	-17.5	174.076
33.5	-17.5	0.639823
37.5	-17.5	16.5278
-25	-17	354.662
-21	-17	836.09
-17	-17	131.321
-13	-17	115.781
-9.000000	-17	115.84
-5.000000	-17	182.847
-1.000000	-17	149.058
3.000000	-17	122.788
7.000000	-17	181.58
11	-17	189.281
15	-17	163.985
19	-17	189.59
23	-17	172.553
27	-17	161.034
31	-17	144.608
35	-17	2.154219
-27.5	-16.5	114.485
-23.5	-16.5	2595.12
-19.5	-16.5	186.812
-15.5	-16.5	240.66
-11.5	-16.5	156.926
-7.500000	-16.5	176.872
-3.500000	-16.5	136.669
0.500000	-16.5	132.93
4.500000	-16.5	195.462
8.500000	-16.5	158.235
12.5	-16.5	170.922
16.5	-16.5	167.079
20.5	-16.5	179.479
24.5	-16.5	157.188
28.5	-16.5	176.747
32.5	-16.5	30.0979
36.5	-16.5	207.039
-26	-16	0.639823
-22	-16	46.3226
-18	-16	142.961
-14	-16	139.599
-10	-16	189.918
-6.000000	-16	174.773
-2.000000	-16	169.009
2.000000	-16	151.571
6.000000	-16	192.87
10	-16	213.202
14	-16	180.748
18	-16	148.972
22	-16	151.171
26	-16	139.737
30	-16	166.189
34	-16	4.298294
38	-16	20.9152
-24.5	-15.5	83.5678
-20.5	-15.5	54.1044
-16.5	-15.5	175.466
-12.5	-15.5	195.324
-8.500000	-15.5	173.869
-4.500000	-15.5	204.299
-0.500000	-15.5	123.677
3.500000	-15.5	123.448
7.500000	-15.5	161.545
11.5	-15.5	220.279
15.5	-15.5	184.782
19.5	-15.5	127.977
23.5	-15.5	66.1309
27.5	-15.5	119.124
31.5	-15.5	118.106
35.5	-15.5	166.218
-27	-15	85.1181
-23	-15	0.701845
-19	-15	200.144
-15	-15	165.886
-11	-15	168.942
-7.000000	-15	165.525
-3.000000	-15	203.289
1.000000	-15	147.473
5.000000	-15	166.847
9.000000	-15	164.433
13	-15	185.595
17	-15	154.083
21	-15	136.152
25	-15	185.859
29	-15	164.525
33	-15	192.986
37	-15	113.241
-25.5	-14.5	1.044773
-21.5	-14.5	49.4779
-17.5	-14.5	170.025
-13.5	-14.5	168.903
-9.500000	-14.5	178.205
-5.500000	-14.5	175.165
-1.500000	-14.5	187.505
2.500000	-14.5	162.457
6.500000	-14.5	175.303
10.5	-14.5	169.581
14.5	-14.5	153.804
18.5	-14.5	155.866
22.5	-14.5	25.5375
26.5	-14.5	121.029
30.5	-14.5	164.481
34.5	-14.5	125.954
-28	-14	0.639823
-24	-14	0.639823
-20	-14	380.761
-16	-14	165.869
-12	-14	168.458
-8.000000	-14	152.612
-4.000000	-14	170.853
0.000000	-14	188.73
4.000000	-14	117.672
8.000000	-14	186.545
12	-14	225.671
16	-14	163.356
20	-14	157.537
24	-14	153.417
28	-14	163.461
32	-14	146.891
36	-14	185.228
-26.5	-13.5	71.4351
-22.5	-13.5	0.639823
-18.5	-13.5	199.159
-14.5	-13.5	179.07
-10.5	-13.5	156.788
-6.500000	-13.5	183.043
-2.500000	-13.5	174.683
1.500000	-13.5	191.259
5.500000	-13.5	179.942
9.500000	-13.5	160.158
13.5	-13.5	141.498
17.5	-13.5	141.58
21.5	-13.5	344.741
25.5	-13.5	177.487
29.5	-13.5	149.804
33.5	-13.5	183.833
37.5	-13.5	89.8465
-25	-13	0.639823
-21	-13	168.843
-17	-13	154.746
-13	-13	185.537
-9.000000	-13	171.714
-5.000000	-13	174.283
-1.000000	-13	141.364
3.000000	-13	145.371
7.000000	-13	150.802
11	-13	143.262
15	-13	134.108
19	-13	119.965
23	-13	189.95
27	-13	121.108
31	-13	37.6097
35	-13	128.338
-27.5	-12.5	118.323
-23.5	-12.5	0.917691
-19.5	-12.5	116.695
-15.5	-12.5	226.224
-11.5	-12.5	157.706
-7.500000	-12.5	174.687
-3.500000	-12.5	144.866
0.500000	-12.5	151.818
4.500000	-12.5	128.913
8.500000	-12.5	174.315
12.5	-12.5	104.813
16.5	-12.5	167.523
20.5	-12.5	125.309
24.5	-12.5	166.717
28.5	-12.5	184.009
32.5	-12.5	40.9696
36.5	-12.5	217.161
-26	-12	165.956
-22	-12	27.3109
-18	-12	192.274
-14	-12	187.251
-10	-12	154.737
-6.000000	-12	204.848
-2.000000	-12	145.418
2.000000	-12	139.684
6.000000	-12	118.236
10	-12	178.587
14	-12	131.512
18	-12	178.469
22	-12	73.4947
26	-12	178.453
30	-12	188.488
34	-12	158.5
38	-12	61.8975
-24.5	-11.5	7.409816
-20.5	-11.5	382.464
-16.5	-11.5	201.246
-12.5	-11.5	125.433
-8.500000	-11.5	177.003
-4.500000	-11.5	188.165
-0.500000	-11.5	121.363
3.500000	-11.5	146.494
7.500000	-11.5	179.399
11.5	-11.5	121.334
15.5	-11.5	93.3924
19.5	-11.5	152.402
23.5	-11.5	179.249
27.5	-11.5	81.8963
31.5	-11.5	2218.53
35.5	-11.5	155.701
-27	-11	5.944254
-23	-11	1.284762
-19	-11	192.388
-15	-11	175.802
-11	-11	171.598
-7.000000	-11	180.924
-3.000000	-11	193.5
1.000000	-11	130.436
5.000000	-11	132.665
9.000000	-11	195.994
13	-11	12.2691
17	-11	171.362
21	-11	187.33
25	-11	194.566
29	-11	59.8966
33	-11	0.690215
37	-11	98.6143
-25.5	-10.5	26.621
-21.5	-10.5	20.4227
-17.5	-10.5	175.17
-13.5	-10.5	140.398
-9.500000	-10.5	167.08
-5.500000	-10.5	185.573
-1.500000	-10.5	185.268
2.500000	-10.5	154.233
6.500000	-10.5	184.016
10.5	-10.5	111.161
14.5	-10.5	0.639823
18.5	-10.5	198.101
22.5	-10.5	181.968
26.5	-10.5	178.517
30.5	-10.5	22.5391
34.5	-10.5	1176.69
-28	-10	156.826
-24	-10	93.9437
-20	-10	177.853
-16	-10	200.561
-12	-10	137.439
-8.000000	-10	142.823
-4.000000	-10	203.013
0.000000	-10	160.889
4.000000	-10	166.136
8.000000	-10	159.973
12	-10	168.939
16	-10	0.639823
20	-10	147.906
24	-10	197.912
28	-10	0.639823
32	-10	195.394
36	-10	1503.62
-26.5	-9.500000	7.601024
-22.5	-9.500000	166.367
-18.5	-9.500000	180.279
-14.5	-9.500000	159.972
-10.5	-9.500000	174.285
-6.500000	-9.500000	162.43
-2.500000	-9.500000	179.287
1.500000	-9.500000	163.281
5.500000	-9.500000	147.294
9.500000	-9.500000	158.518
13.5	-9.500000	152.848
17.5	-9.500000	54.8118
21.5	-9.500000	162.635
25.5	-9.500000	191.93
29.5	-9.500000	66.9938
33.5	-9.500000	172.305
37.5	-9.500000	8.413626
-25	-9.000000	255.451
-21	-9.000000	145.954
-17	-9.000000	204.221
-13	-9.000000	187.244
-9.000000	-9.000000	185.14
-5.000000	-9.000000	182.256
-1.000000	-9.000000	214.993
3.000000	-9.000000	179.969
7.000000	-9.000000	109.573
11	-9.000000	125.291
15	-9.000000	380.936
19	-9.000000	123.553
23	-9.000000	188.118
27	-9.000000	139.191
31	-9.000000	54.4138
35	-9.000000	161.665
-27.5	-8.500000	44.1961
-23.5	-8.500000	190.946
-19.5	-8.500000	162.637
-15.5	-8.500000	209.465
-11.5	-8.500000	130.043
-7.500000	-8.500000	157.266
-3.500000	-8.500000	165.031
0.500000	-8.500000	176.264
4.500000	-8.500000	146.13
8.500000	-8.500000	134.763
12.5	-8.500000	133.449
16.5	-8.500000	139.256
20.5	-8.500000	161.178
24.5	-8.500000	180.177
28.5	-8.500000	145.217
32.5	-8.500000	172.895
36.5	-8.500000	2117.78
-26	-8.000000	0.639823
-22	-8.000000	180.501
-18	-8.000000	179.032
-14	-8.000000	175.231
-10	-8.000000	166.153
-6.000000	-8.000000	181.348
-2.000000	-8.000000	185.025
2.000000	-8.000000	184.783
6.000000	-8.000000	74.2661
10	-8.000000	150.62
14	-8.000000	141.867
18	-8.000000	181.705
22	-8.000000	196.002
26	-8.000000	186.339
30	-8.000000	154.137
34	-8.000000	170.775
38	-8.000000	36.1932
-24.5	-7.500000	176.89
-20.5	-7.500000	191.503
-16.5	-7.500000	182.024
-12.5	-7.500000	182.801
-8.500000	-7.500000	192.972
-4.500000	-7.500000	159.811
-0.500000	-7.500000	168.919
3.500000	-7.500000	194.906
7.500000	-7.500000	167.225
11.5	-7.500000	153.483
15.5	-7.500000	153.623
19.5	-7.500000	185.089
23.5	-7.500000	193.35
27.5	-7.500000	112.87
31.5	-7.500000	168.392
35.5	-7.500000	140.771
-27	-7.000000	18.7436
-23	-7.000000	174.143
-19	-7.000000	220.882
-15	-7.000000	181.164
-11	-7.000000	151.465
-7.000000	-7.000000	159.243
-3.000000	-7.000000	179.382
1.000000	-7.000000	173.016
5.000000	-7.000000	161.122
9.000000	-7.000000	147.123
13	-7.000000	186.398
17	-7.000000	156.751
21	-7.000000	177.032
25	-7.000000	202.489
29	-7.000000	91.4572
33	-7.000000	161.404
37	-7.000000	149.055
-25.5	-6.500000	380.859
-21.5	-6.500000	196.049
-17.5	-6.500000	196.973
-13.5	-6.500000	173.679
-9.500000	-6.500000	212.153
-5.500000	-6.500000	205.18
-1.500000	-6.500000	158.506
2.500000	-6.500000	177.841
6.500000	-6.500000	124.594
10.5	-6.500000	177.586
14.5	-6.500000	155.27
18.5	-6.500000	164.05
22.5	-6.500000	162.193
26.5	-6.500000	129.177
30.5	-6.500000	158.884
34.5	-6.500000	137.557
-28	-6.000000	225.345
-24	-6.000000	192.58
-20	-6.000000	196.666
-16	-6.000000	189.123
-12	-6.000000	161.325
-8.000000	-6.000000	173.372
-4.000000	-6.000000	180.925
0.000000	-6.000000	173.336
4.000000	-6.000000	187.277
8.000000	-6.000000	137.812
12	-6.000000	160.076
16	-6.000000	178.265
20	-6.000000	182.817
24	-6.000000	182.238
28	-6.000000	202.881
32	-6.000000	161.558
36	-6.000000	144.212
-26.5	-5.500000	55.3781
-22.5	-5.500000	196.967
-18.5	-5.500000	175.416
-14.5	-5.500000	173.69
-10.5	-5.500000	30.1248
-6.500000	-5.500000	152.087
-2.500000	-5.500000	147.441
1.500000	-5.500000	127.452
5.500000	-5.500000	161.094
9.500000	-5.500000	173.716
13.5	-5.500000	154.001
17.5	-5.500000	177.933
21.5	-5.500000	168.277
25.5	-5.500000	210.703
29.5	-5.500000	78.7474
33.5	-5.500000	158.894
37.5	-5.500000	156.969
-25	-5.000000	0.639823
-21	-5.000000	188.255
-17	-5.000000	174.3
-13	-5.000000	121.377
-9.000000	-5.000000	2.130603
-5.000000	-5.000000	51.2112
-1.000000	-5.000000	193.352
3.000000	-5.000000	116.37
7.000000	-5.000000	126.408
11	-5.000000	157.112
15	-5.000000	164.451
19	-5.000000	194.848
23	-5.000000	199.644
27	-5.000000	139.627
31	-5.000000	149.029
35	-5.000000	187.801
-27.5	-4.500000	154.979
-23.5	-4.500000	165.191
-19.5	-4.500000	183.716
-15.5	-4.500000	175.571
-11.5	-4.500000	21.6716
-7.500000	-4.500000	116.452
-3.500000	-4.500000	54.9969
0.500000	-4.500000	167.26
4.500000	-4.500000	152.712
8.500000	-4.500000	177.953
12.5	-4.500000	168.011
16.5	-4.500000	158.878
20.5	-4.500000	189.166
24.5	-4.500000	181.072
28.5	-4.500000	166.938
32.5	-4.500000	126.623
36.5	-4.500000	163.407
-26	-4.000000	4.420284
-22	-4.000000	164.648
-18	-4.000000	183.916
-14	-4.000000	160.464
-10	-4.000000	76.2402
-6.000000	-4.000000	44.5502
-2.000000	-4.000000	171.974
2.000000	-4.000000	152.47
6.000000	-4.000000	101.418
10	-4.000000	142.571
14	-4.000000	155.653
18	-4.000000	173.668
22	-4.000000	152.895
26	-4.000000	119.44
30	-4.000000	111.679
34	-4.000000	161.963
38	-4.000000	173.724
-24.5	-3.500000	0.639823
-20.5	-3.500000	167.014
-16.5	-3.500000	213.536
-12.5	-3.500000	150.641
-8.500000	-3.500000	5.190047
-4.500000	-3.500000	0.639823
-0.500000	-3.500000	164.284
3.500000	-3.500000	183.078
7.500000	-3.500000	143.084
11.5	-3.500000	173.597
15.5	-3.500000	181.033
19.5	-3.500000	163.298
23.5	-3.500000	185.751
27.5	-3.500000	180.081
31.5	-3.500000	49.36
35.5	-3.500000	143.688
-27	-3.000000	94.1316
-23	-3.000000	116.147
-19	-3.000000	174.741
-15	-3.000000	167.618
-11	-3.000000	26.1559
-7.000000	-3.000000	0.639823
-3.000000	-3.000000	73.6539
1.000000	-3.000000	192.716
5.000000	-3.000000	134.454
9.000000	-3.000000	160.567
13	-3.000000	152.976
17	-3.000000	174.959
21	-3.000000	142.837
25	-3.000000	154.745
29	-3.000000	168.07
33	-3.000000	26.2705
37	-3.000000	156.169
-25.5	-2.500000	26.5391
-21.5	-2.500000	128.461
-17.5	-2.500000	161.192
-13.5	-2.500000	109.867
-9.500000	-2.500000	48.4885
-5.500000	-2.500000	39.4517
-1.500000	-2.500000	174.35
2.500000	-2.500000	112.73
6.500000	-2.500000	142.934
10.5	-2.500000	187.316
14.5	-2.500000	199.813
18.5	-2.500000	190.381
22.5	-2.500000	162.943
26.5	-2.500000	155.825
30.5	-2.500000	107.126
34.5	-2.500000	193.318
-28	-2.000000	179.815
-24	-2.000000	3.744123
-20	-2.000000	39.9322
-16	-2.000000	162.62
-12	-2.000000	187.156
-8.000000	-2.000000	202.55
-4.000000	-2.000000	15.8966
0.000000	-2.000000	153.937
4.000000	-2.000000	158.07
8.000000	-2.000000	54.9604
12	-2.000000	174.57
16	-2.000000	163.628
20	-2.000000	153.83
24	-2.000000	197.035
28	-2.000000	171.844
32	-2.000000	202.25
36	-2.000000	151.695
-26.5	-1.500000	576.664
-22.5	-1.500000	394.095
-18.5	-1.500000	155.475
-14.5	-1.500000	156.444
-10.5	-1.500000	179.496
-6.500000	-1.500000	21.9612
-2.500000	-1.500000	146.284
1.500000	-1.500000	127.547
5.500000	-1.500000	138.715
9.500000	-1.500000	189.78
13.5	-1.500000	184.355
17.5	-1.500000	161.211
21.5	-1.500000	138.475
25.5	-1.500000	157.205
29.5	-1.500000	176.658
33.5	-1.500000	174.027
37.5	-1.500000	163.387
-25	-1.000000	43.5549
-21	-1.000000	29.1834
-17	-1.000000	168.251
-13	-1.000000	186.824
-9.000000	-1.000000	156.928
-5.000000	-1.000000	0.639823
-1.000000	-1.000000	178.708
3.000000	-1.000000	136.197
7.000000	-1.000000	190.077
11	-1.000000	181.945
15	-1.000000	156.373
19	-1.000000	140.777
23	-1.000000	141.312
27	-1.000000	181.494
31	-1.000000	176.363
35	-1.000000	186.057
-27.5	-0.500000	225.958
-23.5	-0.500000	0.639823
-19.5	-0.500000	158.664
-15.5	-0.500000	140.971
-11.5	-0.500000	175.512
-7.500000	-0.500000	4.050330
-3.500000	-0.500000	47.705
0.500000	-0.500000	160.34
4.500000	-0.500000	128.264
8.500000	-0.500000	197.306
12.5	-0.500000	162.699
16.5	-0.500000	191.931
20.5	-0.500000	165.468
24.5	-0.500000	224.1
28.5	-0.500000	164.179
32.5	-0.500000	298.273
36.5	-0.500000	161.548
-26	0.000000	159.656
-22	0.000000	324.979
-18	0.000000	175.451
-14	0.000000	151.328
-10	0.000000	190.055
-6.000000	0.000000	19.8347
-2.000000	0.000000	207.708
2.000000	0.000000	104.786
6.000000	0.000000	185.262
10	0.000000	172.82
14	0.000000	177.235
18	0.000000	161.187
22	0.000000	172.659
26	0.000000	143.328
30	0.000000	173.681
34	0.000000	5.291649
38	0.000000	141.778
-24.5	0.500000	165.41
-20.5	0.500000	78.8059
-16.5	0.500000	141.221
-12.5	0.500000	179.636
-8.500000	0.500000	168.155
-4.500000	0.500000	0.639823
-0.500000	0.500000	188.903
3.500000	0.500000	144.217
7.500000	0.500000	160.216
11.5	0.500000	163.297
15.5	0.500000	186.633
19.5	0.500000	151.809
23.5	0.500000	157.402
27.5	0.500000	170.138
31.5	0.500000	105.971
35.5	0.500000	18.919
-27	1.000000	148.999
-23	1.000000	191.886
-19	1.000000	166.664
-15	1.000000	184.1
-11	1.000000	174.984
-7.000000	1.000000	115.39
-3.000000	1.000000	159.756
1.000000	1.000000	166.314
5.000000	1.000000	197.733
9.000000	1.000000	145.816
13	1.000000	164.12
17	1.000000	178.546
21	1.000000	165.064
25	1.000000	187.1
29	1.000000	194.302
33	1.000000	0.639823
37	1.000000	31.7892
-25.5	1.500000	192.882
-21.5	1.500000	189.67
-17.5	1.500000	148.147
-13.5	1.500000	172.989
-9.500000	1.500000	180.444
-5.500000	1.500000	0.639823
-1.500000	1.500000	114.983
2.500000	1.500000	180.595
6.500000	1.500000	134.243
10.5	1.500000	170.825
14.5	1.500000	148.169
18.5	1.500000	202.308
22.5	1.500000	159.643
26.5	1.500000	195.386
30.5	1.500000	183.843
34.5	1.500000	18.0029
-28	2.000000	190.194
-24	2.000000	171.43
-20	2.000000	207.331
-16	2.000000	195.983
-12	2.000000	159.555
-8.000000	2.000000	176.552
-4.000000	2.000000	113.997
0.000000	2.000000	175.036
4.000000	2.000000	137.444
8.000000	2.000000	143.399
12	2.000000	188.411
16	2.000000	181.387
20	2.000000	145.358
24	2.000000	153.547
28	2.000000	181.23
32	2.000000	22.9636
36	2.000000	106.947
-26.5	2.500000	141.088
-22.5	2.500000	216.271
-18.5	2.500000	165.785
-14.5	2.500000	162.718
-10.5	2.500000	165.583
-6.500000	2.500000	177.81
-2.500000	2.500000	15.1101
1.500000	2.500000	161.086
5.500000	2.500000	170.937
9.500000	2.500000	171.271
13.5	2.500000	200.118
17.5	2.500000	182.484
21.5	2.500000	157.081
25.5	2.500000	155.455
29.5	2.500000	181.923
33.5	2.500000	0.836969
37.5	2.500000	95.3114
-25	3.000000	178.167
-21	3.000000	158.446
-17	3.000000	177.748
-13	3.000000	152.157
-9.000000	3.000000	155.359
-5.000000	3.000000	117.408
-1.000000	3.000000	90.0025
3.000000	3.000000	182.995
7.000000	3.000000	175.312
11	3.000000	176.055
15	3.000000	172.223
19	3.000000	179.121
23	3.000000	190.436
27	3.000000	150.433
31	3.000000	147.195
35	3.000000	4.355967
-27.5	3.500000	188.752
-23.5	3.500000	180.253
-19.5	3.500000	181.22
-15.5	3.500000	187.506
-11.5	3.500000	176.268
-7.500000	3.500000	135.868
-3.500000	3.500000	151.109
0.500000	3.500000	173.685
4.500000	3.500000	158.043
8.500000	3.500000	174.539
12.5	3.500000	169.878
16.5	3.500000	143.778
20.5	3.500000	172.781
24.5	3.500000	187.184
28.5	3.500000	147.42
32.5	3.500000	0.639823
36.5	3.500000	170.334
-26	4.000000	190.03
-22	4.000000	157.028
-18	4.000000	177.138
-14	4.000000	190.541
-10	4.000000	147.295
-6.000000	4.000000	142.853
-2.000000	4.000000	174.386
2.000000	4.000000	186.278
6.000000	4.000000	168.387
10	4.000000	182.976
14	4.000000	161.23
18	4.000000	158.597
22	4.000000	165.316
26	4.000000	173.655
30	4.000000	137.662
34	4.000000	1.240796
38	4.000000	205.105
-24.5	4.500000	90.0808
-20.5	4.500000	205.768
-16.5	4.500000	186.695
-12.5	4.500000	202.035
-8.500000	4.500000	209.4
-4.500000	4.500000	168.473
-0.500000	4.500000	160.716
3.500000	4.500000	163.181
7.500000	4.500000	138.906
11.5	4.500000	153.952
15.5	4.500000	190.64
19.5	4.500000	163.654
23.5	4.500000	180.338
27.5	4.500000	174.446
31.5	4.500000	58.7452
35.5	4.500000	179.557
-27	5.000000	191.561
-23	5.000000	175.29
-19	5.000000	175.303
-15	5.000000	215.848
-11	5.000000	181.28
-7.000000	5.000000	176.849
-3.000000	5.000000	168.971
1.000000	5.000000	181.127
5.000000	5.000000	166.902
9.000000	5.000000	207.621
13	5.000000	158.613
17	5.000000	194.627
21	5.000000	168.072
25	5.000000	173.215
29	5.000000	156.797
33	5.000000	123.786
37	5.000000	187.692
-25.5	5.500000	129.666
-21.5	5.500000	153.637
-17.5	5.500000	189.986
-13.5	5.500000	175.466
-9.500000	5.500000	186.157
-5.500000	5.500000	111.754
-1.500000	5.500000	204.606
2.500000	5.500000	162.727
6.500000	5.500000	177.865
10.5	5.500000	170.124
14.5	5.500000	197.769
18.5	5.500000	149.956
22.5	5.500000	155.973
26.5	5.500000	152.957
30.5	5.500000	150.574
34.5	5.500000	188.911
-28	6.000000	168.445
-24	6.000000	121.299
-20	6.000000	180.296
-16	6.000000	182.721
-12	6.000000	177.661
-8.000000	6.000000	196.433
-4.000000	6.000000	166.552
0.000000	6.000000	157.317
4.000000	6.000000	200.346
8.000000	6.000000	126.667
12	6.000000	162.329
16	6.000000	164.405
20	6.000000	197.353
24	6.000000	161.588
28	6.000000	131.418
32	6.000000	133.854
36	6.000000	152.801
-26.5	6.500000	133.194
-22.5	6.500000	156.702
-18.5	6.500000	161.462
-14.5	6.500000	186.554
-10.5	6.500000	190.505
-6.500000	6.500000	171.64
-2.500000	6.500000	161.563
1.500000	6.500000	170.015
5.500000	6.500000	181.255
9.500000	6.500000	183.37
13.5	6.500000	174.891
17.5	6.500000	176.267
21.5	6.500000	165.469
25.5	6.500000	199.993
29.5	6.500000	187.344
33.5	6.500000	177.076
37.5	6.500000	176.436
-25	7.000000	0.639823
-21	7.000000	165.36
-17	7.000000	174.632
-13	7.000000	173.875
-9.000000	7.000000	167.814
-5.000000	7.000000	181.416
-1.000000	7.000000	136.094
3.000000	7.000000	171.375
7.000000	7.000000	164.211
11	7.000000	132.251
15	7.000000	144.543
19	7.000000	163.083
23	7.000000	161.411
27	7.000000	177.325
31	7.000000	174.344
35	7.000000	169.609
-27.5	7.500000	96.8719
-23.5	7.500000	130.981
-19.5	7.500000	161.926
-15.5	7.500000	182.119
-11.5	7.500000	176.145
-7.500000	7.500000	181.08
-3.500000	7.500000	191.186
0.500000	7.500000	168.699
4.500000	7.500000	188.719
8.500000	7.500000	131.28
12.5	7.500000	179.204
16.5	7.500000	158.888
20.5	7.500000	174.611
24.5	7.500000	138.509
28.5	7.500000	141.332
32.5	7.500000	151.738
36.5	7.500000	163.537
-26	8.000000	103.264
-22	8.000000	209.281
-18	8.000000	194.836
-14	8.000000	201.766
-10	8.000000	183.71
-6.000000	8.000000	205.223
-2.000000	8.000000	221.247
2.000000	8.000000	208.888
6.000000	8.000000	152.955
10	8.000000	128.367
14	8.000000	163.214
18	8.000000	184.745
22	8.000000	152.176
26	8.000000	165.186
30	8.000000	162.941
34	8.000000	163.729
38	8.000000	171.087
-24.5	8.500000	8.340776
-20.5	8.500000	193.506
-16.5	8.500000	169.44
-12.5	8.500000	212.2
-8.500000	8.500000	178.26
-4.500000	8.500000	197.723
-0.500000	8.500000	180.763
3.500000	8.500000	177.819
7.500000	8.500000	137.858
11.5	8.500000	144.469
15.5	8.500000	162.789
19.5	8.500000	137.882
23.5	8.500000	161.825
27.5	8.500000	180.619
31.5	8.500000	163.492
35.5	8.500000	181.414
-27	9.000000	31.0466
-23	9.000000	107.232
-19	9.000000	214.324
-15	9.000000	190.128
-11	9.000000	187.352
-7.000000	9.000000	190.893
-3.000000	9.000000	185.024
1.000000	9.000000	184.634
5.000000	9.000000	143.432
9.000000	9.000000	157.98
13	9.000000	178.711
17	9.000000	159.673
21	9.000000	163.212
25	9.000000	127.498
29	9.000000	172.74
33	9.000000	173.756
37	9.000000	169.984
-25.5	9.500000	0.639823
-21.5	9.500000	170.138
-17.5	9.500000	185.01
-13.5	9.500000	168.312
-9.500000	9.500000	202.987
-5.500000	9.500000	199.757
-1.500000	9.500000	109.896
2.500000	9.500000	152.137
6.500000	9.500000	159.243
10.5	9.500000	181.067
14.5	9.500000	169.874
18.5	9.500000	132.977
22.5	9.500000	153.839
26.5	9.500000	151.061
30.5	9.500000	164.638
34.5	9.500000	156.518
-28	10	0.896578
-24	10	150.035
-20	10	165.576
-16	10	165.179
-12	10	177.393
-8.000000	10	199.695
-4.000000	10	173.333
0.000000	10	127.024
4.000000	10	129.227
8.000000	10	144.164
12	10	185.622
16	10	139.191
20	10	156.552
24	10	173.124
28	10	168.511
32	10	165.635
36	10	181.393
-26.5	10.5	2.609222
-22.5	10.5	181.231
-18.5	10.5	69.154
-14.5	10.5	186.008
-10.5	10.5	176.503
-6.500000	10.5	196.312
-2.500000	10.5	204.714
1.500000	10.5	142.739
5.500000	10.5	54.5775
9.500000	10.5	162.629
13.5	10.5	181.005
17.5	10.5	152.599
21.5	10.5	179.534
25.5	10.5	150.999
29.5	10.5	206.91
33.5	10.5	186.258
37.5	10.5	169.135
-25	11	0.970900
-21	11	164.133
-17	11	134.897
-13	11	175.174
-9.000000	11	178.249
-5.000000	11	179.379
-1.000000	11	164.725
3.000000	11	114.812
7.000000	11	130.494
11	11	202.992
15	11	145.274
19	11	156.148
23	11	175.614
27	11	190.486
31	11	174.602
35	11	154.815
-27.5	11.5	154.25
-23.5	11.5	101.651
-19.5	11.5	71.1252
-15.5	11.5	108.525
-11.5	11.5	192.604
-7.500000	11.5	173.904
-3.500000	11.5	189.769
0.500000	11.5	118.132
4.500000	11.5	31.3678
8.500000	11.5	169.299
12.5	11.5	160.709
16.5	11.5	155.46
20.5	11.5	183.357
24.5	11.5	197.201
28.5	11.5	163.051
32.5	11.5	192.219
36.5	11.5	185.938
-26	12	70.8043
-22	12	158.204
-18	12	125.592
-14	12	85.9554
-10	12	180.685
-6.000000	12	154.549
-2.000000	12	192.849
2.000000	12	112.574
6.000000	12	264.752
10	12	173.629
14	12	170.281
18	12	158.104
22	12	185.719
26	12	153.253
30	12	152.416
34	12	167.74
38	12	175.652
-24.5	12.5	8.419888
-20.5	12.5	46.3643
-16.5	12.5	31.39
-12.5	12.5	176.041
-8.500000	12.5	191.283
-4.500000	12.5	167.676
-0.500000	12.5	185.746
3.500000	12.5	1.460951
7.500000	12.5	150.32
11.5	12.5	152.923
15.5	12.5	169.655
19.5	12.5	160.901
23.5	12.5	172.241
27.5	12.5	174.591
31.5	12.5	161.544
35.5	12.5	151.403
-27	13	66.8584
-23	13	942.307
-19	13	9.612819
-15	13	25.2876
-11	13	182.231
-7.000000	13	188.601
-3.000000	13	182.041
1.000000	13	177.685
5.000000	13	560.803
9.000000	13	162.509
13	13	167.502
17	13	159.512
21	13	156.413
25	13	155.414
29	13	182.005
33	13	171.199
37	13	183.427
-25.5	13.5	2328.02
-21.5	13.5	400.201
-17.5	13.5	0.653609
-13.5	13.5	131.92
-9.500000	13.5	172.537
-5.500000	13.5	181.022
-1.500000	13.5	174.955
2.500000	13.5	59.0072
6.500000	13.5	27.4865
10.5	13.5	160.149
14.5	13.5	153.836
18.5	13.5	158.774
22.5	13.5	175.209
26.5	13.5	181.024
30.5	13.5	167.287
34.5	13.5	143.212
-28	14	90.8216
-24	14	57.8753
-20	14	11.1421
-16	14	0.639823
-12	14	156.698
-8.000000	14	170.385
-4.000000	14	180.741
0.000000	14	184.433
4.000000	14	0.639823
8.000000	14	1.195735
12	14	187.17
16	14	161.056
20	14	195.091
24	14	184.043
28	14	162.585
32	14	186.97
36	14	165.703
-26.5	14.5	100.428
-22.5	14.5	102.456
-18.5	14.5	160.299
-14.5	14.5	0.639823
-10.5	14.5	148.32
-6.500000	14.5	135.179
-2.500000	14.5	170.466
1.500000	14.5	183.838
5.500000	14.5	7.006727
9.500000	14.5	153.679
13.5	14.5	147.952
17.5	14.5	195.876
21.5	14.5	179.479
25.5	14.5	180.404
29.5	14.5	207.704
33.5	14.5	174.289
37.5	14.5	173.065
-25	15	0.639823
-21	15	0.639823
-17	15	20.8637
-13	15	0.845264
-9.000000	15	158.549
-5.000000	15	20.1228
-1.000000	15	135.555
3.000000	15	95.9297
7.000000	15	67.4525
11	15	167.091
15	15	173.871
19	15	158.052
23	15	168.897
27	15	180.102
31	15	158.713
35	15	194.059
-27.5	15.5	0.639823
-23.5	15.5	0.639823
-19.5	15.5	23.1608
-15.5	15.5	306.498
-11.5	15.5	155.436
-7.500000	15.5	320.504
-3.500000	15.5	30.1968
0.500000	15.5	114.832
4.500000	15.5	148.265
8.500000	15.5	67.5299
12.5	15.5	135.113
16.5	15.5	186.873
20.5	15.5	156.267
24.5	15.5	198.276
28.5	15.5	162.327
32.5	15.5	176.604
36.5	15.5	150.446
-26	16	2.953051
-22	16	2.509716
-18	16	5.785019
-14	16	0.639823
-10	16	164.519
-6.000000	16	0.639823
-2.000000	16	125.338
2.000000	16	148.707
6.000000	16	0.639823
10	16	185.791
14	16	168.641
18	16	195.911
22	16	167.15
26	16	206.966
30	16	173.978
34	16	203.099
38	16	139.142
-24.5	16.5	447.975
-20.5	16.5	0.639823
-16.5	16.5	0.639823
-12.5	16.5	113.182
-8.500000	16.5	175.621
-4.500000	16.5	69.0573
-0.500000	16.5	9.705124
3.500000	16.5	168.805
7.500000	16.5	0.639823
11.5	16.5	148.209
15.5	16.5	176.346
19.5	16.5	159.4
23.5	16.5	179.827
27.5	16.5	159.51
31.5	16.5	119.878
35.5	16.5	182.613
-27	17	2.578319
-23	17	0.639823
-19	17	45.1233
-15	17	33.7753
-11	17	180.383
-7.000000	17	168.048
-3.000000	17	28.3762
1.000000	17	166.288
5.000000	17	123.648
9.000000	17	134.835
13	17	166.803
17	17	176.032
21	17	158.62
25	17	171.535
29	17	155.601
33	17	176.765
37	17	16.6519
-25.5	17.5	140.857
-21.5	17.5	25.6156
-17.5	17.5	0.639823
-13.5	17.5	133.301
-9.500000	17.5	114.108
-5.500000	17.5	4.012051
-1.500000	17.5	92.5021
2.500000	17.5	162.804
6.500000	17.5	0.639823
10.5	17.5	133.67
14.5	17.5	164.506
18.5	17.5	153.005
22.5	17.5	175.863
26.5	17.5	137.485
30.5	17.5	43.7911
34.5	17.5	155.159
-28	18	315.366
-24	18	11.8302
-20	18	3.689924
-16	18	0.639823
-12	18	178.131
-8.000000	18	185.378
-4.000000	18	46.3113
0.000000	18	93.4238
4.000000	18	161.539
8.000000	18	49.5556
12	18	166.152
16	18	160.665
20	18	132.668
24	18	199.986
28	18	69.1091
32	18	0.639823
36	18	0.639823
-26.5	18.5	132.264
-22.5	18.5	0.865032
-18.5	18.5	129.055
-14.5	18.5	98.2037
-10.5	18.5	135.759
-6.500000	18.5	2595.12
-2.500000	18.5	151.356
1.500000	18.5	169.097
5.500000	18.5	13.3709
9.500000	18.5	93.3357
13.5	18.5	120.972
17.5	18.5	151.66
21.5	18.5	169.558
25.5	18.5	155.693
29.5	18.5	2.027743
33.5	18.5	180.207
37.5	18.5	0.639823
-25	19	9.615206
-21	19	59.5712
-17	19	2.836433
-13	19	114.304
-9.000000	19	119.423
-5.000000	19	247.013
-1.000000	19	282.106
3.000000	19	190.098
7.000000	19	2595.12
11	19	154.278
15	19	168.275
19	19	163.309
23	19	178.926
27	19	0.639823
31	19	146.936
35	19	120.168
-27.5	19.5	141.672
-23.5	19.5	0.639823
-19.5	19.5	10.6503
-15.5	19.5	4.680265
-11.5	19.5	114.231
-7.500000	19.5	69.3762
-3.500000	19.5	194.051
0.500000	19.5	155.528
4.500000	19.5	36.3005
8.500000	19.5	565.11
12.5	19.5	193.339
16.5	19.5	177.819
20.5	19.5	169.258
24.5	19.5	253.752
28.5	19.5	0.639823
32.5	19.5	151.755
36.5	19.5	127.728
-26	20	60.5966
-22	20	199.93
-18	20	8.763728
-14	20	12.2127
-10	20	186.505
-6.000000	20	179.572
-2.000000	20	145.141
2.000000	20	144.75
6.000000	20	13.9927
10	20	169.706
14	20	182.848
18	20	182.312
22	20	223.716
26	20	464.144
30	20	89.6705
34	20	165.253
38	20	0.639823