File: data/derived_data/raman/20170920_Gr-NH2_for_Radisurf/20170920 Gr-NH for Radisurf map 1/DDp pos.txt
#XList		#YList		#IList
-28	-22	2907.77
-24	-22	2917.59
-20	-22	2913.7
-16	-22	2920.85
-12	-22	2933.28
-8.000000	-22	2921.1
-4.000000	-22	2923.79
0.000000	-22	2925.78
4.000000	-22	2929.61
8.000000	-22	2931.19
12	-22	2923.31
16	-22	2927.53
20	-22	2921.43
24	-22	2900.88
28	-22	2995.46
32	-22	2925.84
36	-22	2900
-26.5	-21.5	2923
-22.5	-21.5	2923.52
-18.5	-21.5	2924.24
-14.5	-21.5	2930.48
-10.5	-21.5	2922.48
-6.500000	-21.5	2921.53
-2.500000	-21.5	2929.37
1.500000	-21.5	2930.65
5.500000	-21.5	2924.12
9.500000	-21.5	2926.99
13.5	-21.5	2919.56
17.5	-21.5	2928.33
21.5	-21.5	2923.14
25.5	-21.5	2922.97
29.5	-21.5	2924.76
33.5	-21.5	2900
37.5	-21.5	2900
-25	-21	2912.78
-21	-21	2914.17
-17	-21	2928.86
-13	-21	2918.34
-9.000000	-21	2924.45
-5.000000	-21	2926.54
-1.000000	-21	2929.56
3.000000	-21	2928.25
7.000000	-21	2916.88
11	-21	2918.21
15	-21	2924.87
19	-21	2928.7
23	-21	2924.2
27	-21	2928.79
31	-21	2955.36
35	-21	2900
-27.5	-20.5	2960.99
-23.5	-20.5	2911.81
-19.5	-20.5	2913.28
-15.5	-20.5	2922.44
-11.5	-20.5	2900
-7.500000	-20.5	2927.28
-3.500000	-20.5	2924.48
0.500000	-20.5	2905.51
4.500000	-20.5	2931.6
8.500000	-20.5	2924.3
12.5	-20.5	2915.41
16.5	-20.5	2925.82
20.5	-20.5	2927.59
24.5	-20.5	2929.38
28.5	-20.5	2935.9
32.5	-20.5	3000
36.5	-20.5	2900
-26	-20	2900.76
-22	-20	2922.9
-18	-20	2917.44
-14	-20	2934.15
-10	-20	2918.35
-6.000000	-20	2926.11
-2.000000	-20	2931.97
2.000000	-20	2925.9
6.000000	-20	2924.71
10	-20	2920.94
14	-20	2925.65
18	-20	2933.19
22	-20	2923.08
26	-20	2961.91
30	-20	2934.75
34	-20	2900
38	-20	2900.33
-24.5	-19.5	2906.93
-20.5	-19.5	2912.75
-16.5	-19.5	2909.79
-12.5	-19.5	2943.02
-8.500000	-19.5	2924.94
-4.500000	-19.5	2930.76
-0.500000	-19.5	2900
3.500000	-19.5	2935.64
7.500000	-19.5	2925.41
11.5	-19.5	2919.71
15.5	-19.5	2917.45
19.5	-19.5	2924.84
23.5	-19.5	2918.46
27.5	-19.5	2921.56
31.5	-19.5	2920.16
35.5	-19.5	2900
-27	-19	2900
-23	-19	2917.29
-19	-19	2919.13
-15	-19	2925.22
-11	-19	3000
-7.000000	-19	2925.42
-3.000000	-19	2915.48
1.000000	-19	2926.36
5.000000	-19	2923.72
9.000000	-19	2919.7
13	-19	2928.37
17	-19	2918.26
21	-19	2927.96
25	-19	2921.62
29	-19	2934.69
33	-19	2917.51
37	-19	2968.01
-25.5	-18.5	2913.75
-21.5	-18.5	2934.94
-17.5	-18.5	2915.31
-13.5	-18.5	2965.13
-9.500000	-18.5	2900
-5.500000	-18.5	2921.43
-1.500000	-18.5	2922.49
2.500000	-18.5	2927.97
6.500000	-18.5	2926.65
10.5	-18.5	2921.31
14.5	-18.5	2931.36
18.5	-18.5	2930.7
22.5	-18.5	2918.11
26.5	-18.5	2923.74
30.5	-18.5	2931.49
34.5	-18.5	2913.11
-28	-18	2900.17
-24	-18	2900
-20	-18	2902.86
-16	-18	2917.78
-12	-18	2937.67
-8.000000	-18	2900
-4.000000	-18	2926.05
0.000000	-18	2933.87
4.000000	-18	2930.02
8.000000	-18	2918.47
12	-18	2922.12
16	-18	2924.84
20	-18	2922.96
24	-18	2937.14
28	-18	2929.57
32	-18	3000
36	-18	2900
-26.5	-17.5	2900
-22.5	-17.5	2921.08
-18.5	-17.5	2932.8
-14.5	-17.5	2931.35
-10.5	-17.5	2954.87
-6.500000	-17.5	2935.71
-2.500000	-17.5	2929.32
1.500000	-17.5	2927.46
5.500000	-17.5	2916.8
9.500000	-17.5	2919.54
13.5	-17.5	2920.13
17.5	-17.5	2929.1
21.5	-17.5	2920.97
25.5	-17.5	2929.7
29.5	-17.5	2932.43
33.5	-17.5	2979.58
37.5	-17.5	2937.77
-25	-17	2900
-21	-17	3000
-17	-17	2932.72
-13	-17	2929.22
-9.000000	-17	2900
-5.000000	-17	2936.42
-1.000000	-17	2928.27
3.000000	-17	2934.51
7.000000	-17	2921.39
11	-17	2920.97
15	-17	2920.83
19	-17	2923.7
23	-17	2924.62
27	-17	2919.99
31	-17	2925.64
35	-17	3000
-27.5	-16.5	2927.51
-23.5	-16.5	3000
-19.5	-16.5	2922.23
-15.5	-16.5	2932.08
-11.5	-16.5	2927.69
-7.500000	-16.5	2926.48
-3.500000	-16.5	2927.17
0.500000	-16.5	2932.95
4.500000	-16.5	2920.37
8.500000	-16.5	2920.42
12.5	-16.5	2931.51
16.5	-16.5	2926.81
20.5	-16.5	2930.45
24.5	-16.5	2928.51
28.5	-16.5	2927.89
32.5	-16.5	2931.68
36.5	-16.5	2965.33
-26	-16	2985.95
-22	-16	2952.59
-18	-16	2930.73
-14	-16	2927.95
-10	-16	2930.88
-6.000000	-16	2923.01
-2.000000	-16	2933.68
2.000000	-16	2928.85
6.000000	-16	2934.02
10	-16	2916.44
14	-16	2922.88
18	-16	2918.39
22	-16	2927.49
26	-16	2923.06
30	-16	2936.46
34	-16	2936.57
38	-16	2962.85
-24.5	-15.5	2900
-20.5	-15.5	2943.94
-16.5	-15.5	2927.25
-12.5	-15.5	2926.63
-8.500000	-15.5	2918.28
-4.500000	-15.5	2920.06
-0.500000	-15.5	2941.89
3.500000	-15.5	2928.9
7.500000	-15.5	2918.57
11.5	-15.5	2919.39
15.5	-15.5	2920.3
19.5	-15.5	2930.24
23.5	-15.5	2932.82
27.5	-15.5	2934
31.5	-15.5	2934.1
35.5	-15.5	2935.04
-27	-15	2922.59
-23	-15	2900.26
-19	-15	2922.41
-15	-15	2916.97
-11	-15	2920.9
-7.000000	-15	2916.3
-3.000000	-15	2917.14
1.000000	-15	2931.64
5.000000	-15	2923.65
9.000000	-15	2919.7
13	-15	2922.63
17	-15	2918.44
21	-15	2922.5
25	-15	2913.97
29	-15	2945.05
33	-15	2960.43
37	-15	2932.98
-25.5	-14.5	2972.14
-21.5	-14.5	2900
-17.5	-14.5	2922.06
-13.5	-14.5	2918.91
-9.500000	-14.5	2920.47
-5.500000	-14.5	2915.11
-1.500000	-14.5	2925.29
2.500000	-14.5	2919.03
6.500000	-14.5	2924.59
10.5	-14.5	2932.19
14.5	-14.5	2922.43
18.5	-14.5	2924.32
22.5	-14.5	2945.69
26.5	-14.5	2906.73
30.5	-14.5	2939.95
34.5	-14.5	2942.64
-28	-14	2900
-24	-14	2989
-20	-14	2931.98
-16	-14	2920.29
-12	-14	2919.3
-8.000000	-14	2921
-4.000000	-14	2916.12
0.000000	-14	2930.4
4.000000	-14	2926.04
8.000000	-14	2920.73
12	-14	2927.12
16	-14	2927.61
20	-14	2938.96
24	-14	2919.43
28	-14	2938.88
32	-14	2908.66
36	-14	2923.17
-26.5	-13.5	2921.88
-22.5	-13.5	2965.53
-18.5	-13.5	2917.36
-14.5	-13.5	2922.88
-10.5	-13.5	2920.18
-6.500000	-13.5	2910.21
-2.500000	-13.5	2922.43
1.500000	-13.5	2925.54
5.500000	-13.5	2926.71
9.500000	-13.5	2932.11
13.5	-13.5	2919.15
17.5	-13.5	2926.3
21.5	-13.5	3000
25.5	-13.5	2915.44
29.5	-13.5	2934.04
33.5	-13.5	2939.87
37.5	-13.5	2936.53
-25	-13	2900
-21	-13	2938.17
-17	-13	2909.14
-13	-13	2918.97
-9.000000	-13	2917.83
-5.000000	-13	2916.62
-1.000000	-13	2926.61
3.000000	-13	2928.47
7.000000	-13	2931.11
11	-13	2909.61
15	-13	2927.04
19	-13	2924.39
23	-13	2927.74
27	-13	2931.72
31	-13	2910.95
35	-13	2946.21
-27.5	-12.5	2936.34
-23.5	-12.5	2999.04
-19.5	-12.5	2923.55
-15.5	-12.5	2919.42
-11.5	-12.5	2927.57
-7.500000	-12.5	2909.88
-3.500000	-12.5	2916.03
0.500000	-12.5	2927.68
4.500000	-12.5	2913.14
8.500000	-12.5	2929.47
12.5	-12.5	2931.24
16.5	-12.5	2924.77
20.5	-12.5	2928.17
24.5	-12.5	2919.91
28.5	-12.5	2940.63
32.5	-12.5	2955.37
36.5	-12.5	2943.02
-26	-12	2922.26
-22	-12	2929.5
-18	-12	2918.05
-14	-12	2918.58
-10	-12	2929.18
-6.000000	-12	2923.5
-2.000000	-12	2920.11
2.000000	-12	2929.05
6.000000	-12	2932.27
10	-12	2907.78
14	-12	2900
18	-12	2912.48
22	-12	2918.89
26	-12	2916.1
30	-12	2922.06
34	-12	2963.59
38	-12	2946.75
-24.5	-11.5	2927.36
-20.5	-11.5	2941.43
-16.5	-11.5	2924.52
-12.5	-11.5	2923.14
-8.500000	-11.5	2919.63
-4.500000	-11.5	2923.42
-0.500000	-11.5	2921.46
3.500000	-11.5	2923.93
7.500000	-11.5	2927.36
11.5	-11.5	2900
15.5	-11.5	2966.47
19.5	-11.5	2924.17
23.5	-11.5	2918.15
27.5	-11.5	2900
31.5	-11.5	2900
35.5	-11.5	2951.51
-27	-11	2976.68
-23	-11	2943.57
-19	-11	2922.24
-15	-11	2912.25
-11	-11	2934.15
-7.000000	-11	2923.68
-3.000000	-11	2918.9
1.000000	-11	2925.44
5.000000	-11	2923.82
9.000000	-11	2932.69
13	-11	2902.17
17	-11	2913.47
21	-11	2924.49
25	-11	2915.03
29	-11	2953.14
33	-11	2900
37	-11	2949.32
-25.5	-10.5	2946.41
-21.5	-10.5	2900
-17.5	-10.5	2916.25
-13.5	-10.5	2928.15
-9.500000	-10.5	2922.03
-5.500000	-10.5	2930.7
-1.500000	-10.5	2929.96
2.500000	-10.5	2925.87
6.500000	-10.5	2934.43
10.5	-10.5	2932.74
14.5	-10.5	2900
18.5	-10.5	2918.33
22.5	-10.5	2924.33
26.5	-10.5	2916.52
30.5	-10.5	2904.02
34.5	-10.5	2925.66
-28	-10	2927.54
-24	-10	2936.73
-20	-10	2929.29
-16	-10	2924.3
-12	-10	2931.43
-8.000000	-10	2921.49
-4.000000	-10	2922.92
0.000000	-10	2933.36
4.000000	-10	2926.73
8.000000	-10	2926.84
12	-10	2934.81
16	-10	2922.02
20	-10	2936
24	-10	2920.73
28	-10	2900
32	-10	2921.2
36	-10	2900
-26.5	-9.500000	2928.34
-22.5	-9.500000	2932.45
-18.5	-9.500000	2914.38
-14.5	-9.500000	2916.52
-10.5	-9.500000	2937.24
-6.500000	-9.500000	2923.24
-2.500000	-9.500000	2921.09
1.500000	-9.500000	2922.89
5.500000	-9.500000	2933.13
9.500000	-9.500000	2933.77
13.5	-9.500000	2923.25
17.5	-9.500000	2917.96
21.5	-9.500000	2936.87
25.5	-9.500000	2923.1
29.5	-9.500000	2936.48
33.5	-9.500000	2925.94
37.5	-9.500000	2955.44
-25	-9.000000	2944.73
-21	-9.000000	2931.37
-17	-9.000000	2912.39
-13	-9.000000	2923.82
-9.000000	-9.000000	2918.92
-5.000000	-9.000000	2930.57
-1.000000	-9.000000	2929.19
3.000000	-9.000000	2930.3
7.000000	-9.000000	2945.5
11	-9.000000	2933.08
15	-9.000000	2925.05
19	-9.000000	2933.75
23	-9.000000	2918.85
27	-9.000000	2926.13
31	-9.000000	2918.42
35	-9.000000	2936.89
-27.5	-8.500000	2935.63
-23.5	-8.500000	2918.74
-19.5	-8.500000	2930.72
-15.5	-8.500000	2912.58
-11.5	-8.500000	2963.27
-7.500000	-8.500000	2911.64
-3.500000	-8.500000	2921.76
0.500000	-8.500000	2924.42
4.500000	-8.500000	2928.82
8.500000	-8.500000	2932.34
12.5	-8.500000	2935.53
16.5	-8.500000	2931.05
20.5	-8.500000	2933.87
24.5	-8.500000	2925.31
28.5	-8.500000	2926.96
32.5	-8.500000	2932.38
36.5	-8.500000	3000
-26	-8.000000	2900
-22	-8.000000	2918.35
-18	-8.000000	2918.15
-14	-8.000000	2919.13
-10	-8.000000	2919.04
-6.000000	-8.000000	2928.72
-2.000000	-8.000000	2927.84
2.000000	-8.000000	2922.17
6.000000	-8.000000	2920.3
10	-8.000000	2932.46
14	-8.000000	2925.69
18	-8.000000	2923.73
22	-8.000000	2927.12
26	-8.000000	2923.98
30	-8.000000	2941.7
34	-8.000000	2924.83
38	-8.000000	2953.19
-24.5	-7.500000	2930.19
-20.5	-7.500000	2925.14
-16.5	-7.500000	2916.99
-12.5	-7.500000	2933.54
-8.500000	-7.500000	2924.68
-4.500000	-7.500000	2924.85
-0.500000	-7.500000	2920.08
3.500000	-7.500000	2927.71
7.500000	-7.500000	2941.54
11.5	-7.500000	2930.03
15.5	-7.500000	2934.73
19.5	-7.500000	2933.23
23.5	-7.500000	2927.65
27.5	-7.500000	2939.47
31.5	-7.500000	2933.77
35.5	-7.500000	2930.08
-27	-7.000000	2939.42
-23	-7.000000	2922.75
-19	-7.000000	2927.63
-15	-7.000000	2910.1
-11	-7.000000	2936.37
-7.000000	-7.000000	2925.97
-3.000000	-7.000000	2926.98
1.000000	-7.000000	2922.61
5.000000	-7.000000	2941.73
9.000000	-7.000000	2922.96
13	-7.000000	2933.39
17	-7.000000	2914.8
21	-7.000000	2929.86
25	-7.000000	2939.78
29	-7.000000	2943.04
33	-7.000000	2927.86
37	-7.000000	2924.21
-25.5	-6.500000	2935.62
-21.5	-6.500000	2920.44
-17.5	-6.500000	2927.02
-13.5	-6.500000	2913.15
-9.500000	-6.500000	2926.43
-5.500000	-6.500000	2920.2
-1.500000	-6.500000	2914.57
2.500000	-6.500000	2939.76
6.500000	-6.500000	2940.49
10.5	-6.500000	2920.03
14.5	-6.500000	2932.34
18.5	-6.500000	2919.56
22.5	-6.500000	2925.81
26.5	-6.500000	2963.6
30.5	-6.500000	2902.42
34.5	-6.500000	2927.45
-28	-6.000000	2941.69
-24	-6.000000	2922.49
-20	-6.000000	2924.38
-16	-6.000000	2919.27
-12	-6.000000	2917.25
-8.000000	-6.000000	2919.83
-4.000000	-6.000000	2923.95
0.000000	-6.000000	2928.77
4.000000	-6.000000	2928.2
8.000000	-6.000000	2925.32
12	-6.000000	2916
16	-6.000000	2927.67
20	-6.000000	2920.6
24	-6.000000	2917.46
28	-6.000000	2930.7
32	-6.000000	2914.99
36	-6.000000	2924.84
-26.5	-5.500000	2928.51
-22.5	-5.500000	2926.96
-18.5	-5.500000	2923.58
-14.5	-5.500000	2919.3
-10.5	-5.500000	2913.28
-6.500000	-5.500000	2906.65
-2.500000	-5.500000	2927.23
1.500000	-5.500000	2936.23
5.500000	-5.500000	2931.57
9.500000	-5.500000	2924.21
13.5	-5.500000	2927.7
17.5	-5.500000	2918.71
21.5	-5.500000	2926.79
25.5	-5.500000	2936.94
29.5	-5.500000	2943.26
33.5	-5.500000	2929.2
37.5	-5.500000	2930.8
-25	-5.000000	2935.93
-21	-5.000000	2919.83
-17	-5.000000	2930.16
-13	-5.000000	2929.84
-9.000000	-5.000000	2900
-5.000000	-5.000000	2977.76
-1.000000	-5.000000	2917.81
3.000000	-5.000000	2927.22
7.000000	-5.000000	2935.23
11	-5.000000	2922.98
15	-5.000000	2917.07
19	-5.000000	2911.4
23	-5.000000	2917.43
27	-5.000000	2924.04
31	-5.000000	2910.29
35	-5.000000	2920.43
-27.5	-4.500000	2931.28
-23.5	-4.500000	2922.14
-19.5	-4.500000	2927.31
-15.5	-4.500000	2929.92
-11.5	-4.500000	2937.84
-7.500000	-4.500000	2977.94
-3.500000	-4.500000	2912.48
0.500000	-4.500000	2925.14
4.500000	-4.500000	2909.7
8.500000	-4.500000	2932.83
12.5	-4.500000	2923.5
16.5	-4.500000	2911.13
20.5	-4.500000	2921.93
24.5	-4.500000	2926.98
28.5	-4.500000	2925.22
32.5	-4.500000	2928.45
36.5	-4.500000	2925.71
-26	-4.000000	2901.96
-22	-4.000000	2922.49
-18	-4.000000	2931.4
-14	-4.000000	2916.36
-10	-4.000000	2900
-6.000000	-4.000000	2900
-2.000000	-4.000000	2917.6
2.000000	-4.000000	2929.85
6.000000	-4.000000	2986.97
10	-4.000000	2932.34
14	-4.000000	2925.19
18	-4.000000	2924.18
22	-4.000000	2921.34
26	-4.000000	2926.06
30	-4.000000	2926.54
34	-4.000000	2927.17
38	-4.000000	2925.17
-24.5	-3.500000	2900
-20.5	-3.500000	2921.12
-16.5	-3.500000	2926.6
-12.5	-3.500000	2907.33
-8.500000	-3.500000	2955.7
-4.500000	-3.500000	2979.55
-0.500000	-3.500000	2927.59
3.500000	-3.500000	2921.86
7.500000	-3.500000	2916.34
11.5	-3.500000	2923.49
15.5	-3.500000	2933.73
19.5	-3.500000	2921.38
23.5	-3.500000	2921.69
27.5	-3.500000	2929.18
31.5	-3.500000	2918.82
35.5	-3.500000	2921.79
-27	-3.000000	2926.87
-23	-3.000000	2928.85
-19	-3.000000	2914.45
-15	-3.000000	2918.03
-11	-3.000000	2901.39
-7.000000	-3.000000	2999.57
-3.000000	-3.000000	2955.36
1.000000	-3.000000	2926.42
5.000000	-3.000000	2903.55
9.000000	-3.000000	2937.8
13	-3.000000	2926.44
17	-3.000000	2924.05
21	-3.000000	2924.92
25	-3.000000	2921.23
29	-3.000000	2923.79
33	-3.000000	2923.02
37	-3.000000	2923.63
-25.5	-2.500000	2906.11
-21.5	-2.500000	2920.35
-17.5	-2.500000	2925.83
-13.5	-2.500000	2923.88
-9.500000	-2.500000	2932.76
-5.500000	-2.500000	2910.71
-1.500000	-2.500000	2926.44
2.500000	-2.500000	2921.75
6.500000	-2.500000	2919.05
10.5	-2.500000	2926.49
14.5	-2.500000	2922.86
18.5	-2.500000	2933.46
22.5	-2.500000	2922.66
26.5	-2.500000	2930.43
30.5	-2.500000	2938.9
34.5	-2.500000	2925.3
-28	-2.000000	2932
-24	-2.000000	2940.83
-20	-2.000000	2999.15
-16	-2.000000	2935.86
-12	-2.000000	2925.65
-8.000000	-2.000000	2942.36
-4.000000	-2.000000	2908.24
0.000000	-2.000000	2922.88
4.000000	-2.000000	2931.57
8.000000	-2.000000	2966.44
12	-2.000000	2921.82
16	-2.000000	2926.13
20	-2.000000	2930.43
24	-2.000000	2926.58
28	-2.000000	2927.56
32	-2.000000	2920.19
36	-2.000000	2931.18
-26.5	-1.500000	2900
-22.5	-1.500000	2900
-18.5	-1.500000	2930.23
-14.5	-1.500000	2919.87
-10.5	-1.500000	2925.87
-6.500000	-1.500000	2994.28
-2.500000	-1.500000	2928.82
1.500000	-1.500000	2916.71
5.500000	-1.500000	2934.88
9.500000	-1.500000	2926.66
13.5	-1.500000	2902.88
17.5	-1.500000	2924.93
21.5	-1.500000	2925.98
25.5	-1.500000	2923.47
29.5	-1.500000	2926
33.5	-1.500000	2952.65
37.5	-1.500000	2918.89
-25	-1.000000	2900
-21	-1.000000	2937.89
-17	-1.000000	2927.61
-13	-1.000000	2939.46
-9.000000	-1.000000	2919.87
-5.000000	-1.000000	2900
-1.000000	-1.000000	2925.56
3.000000	-1.000000	2900
7.000000	-1.000000	2929.97
11	-1.000000	2923.87
15	-1.000000	2919.86
19	-1.000000	2925.41
23	-1.000000	2926.47
27	-1.000000	2929.41
31	-1.000000	2924.42
35	-1.000000	2934.33
-27.5	-0.500000	2938.52
-23.5	-0.500000	2990.79
-19.5	-0.500000	2928.62
-15.5	-0.500000	2935.23
-11.5	-0.500000	2921.94
-7.500000	-0.500000	2900.48
-3.500000	-0.500000	2913.74
0.500000	-0.500000	2923.07
4.500000	-0.500000	2945.81
8.500000	-0.500000	2934.22
12.5	-0.500000	2924.98
16.5	-0.500000	2924.57
20.5	-0.500000	2928.73
24.5	-0.500000	2919.47
28.5	-0.500000	2923.24
32.5	-0.500000	2992.24
36.5	-0.500000	2929.01
-26	0.000000	2933.5
-22	0.000000	2900
-18	0.000000	2928.04
-14	0.000000	2924.11
-10	0.000000	2928.2
-6.000000	0.000000	2931.26
-2.000000	0.000000	2910.79
2.000000	0.000000	2970.99
6.000000	0.000000	2932.69
10	0.000000	2921.64
14	0.000000	2925.53
18	0.000000	2929.1
22	0.000000	2925.22
26	0.000000	2929.37
30	0.000000	2916.25
34	0.000000	2949.15
38	0.000000	2914.59
-24.5	0.500000	2920.21
-20.5	0.500000	2962.5
-16.5	0.500000	2931.37
-12.5	0.500000	2922
-8.500000	0.500000	2915.78
-4.500000	0.500000	2980.71
-0.500000	0.500000	2919.61
3.500000	0.500000	2925.18
7.500000	0.500000	2924.69
11.5	0.500000	2924.85
15.5	0.500000	2919.18
19.5	0.500000	2930
23.5	0.500000	2928.94
27.5	0.500000	2924.54
31.5	0.500000	2929.78
35.5	0.500000	2903.51
-27	1.000000	2934.46
-23	1.000000	2930.37
-19	1.000000	2933.24
-15	1.000000	2935.66
-11	1.000000	2920
-7.000000	1.000000	2906.39
-3.000000	1.000000	2929.65
1.000000	1.000000	2917.9
5.000000	1.000000	2928.31
9.000000	1.000000	2920.12
13	1.000000	2931.97
17	1.000000	2920.09
21	1.000000	2933.34
25	1.000000	2929.2
29	1.000000	2918.91
33	1.000000	2922.04
37	1.000000	2938.91
-25.5	1.500000	2937.77
-21.5	1.500000	2933.2
-17.5	1.500000	2930.47
-13.5	1.500000	2927.32
-9.500000	1.500000	2924.37
-5.500000	1.500000	2915.24
-1.500000	1.500000	2944.24
2.500000	1.500000	2931.99
6.500000	1.500000	2928.54
10.5	1.500000	2921.38
14.5	1.500000	2927.21
18.5	1.500000	2926.95
22.5	1.500000	2928.21
26.5	1.500000	2935.28
30.5	1.500000	2917.54
34.5	1.500000	2973.99
-28	2.000000	2933.79
-24	2.000000	2935.43
-20	2.000000	2923.42
-16	2.000000	2933.07
-12	2.000000	2920.68
-8.000000	2.000000	2930.78
-4.000000	2.000000	2920.78
0.000000	2.000000	2939.77
4.000000	2.000000	2925.69
8.000000	2.000000	2943.02
12	2.000000	2926.71
16	2.000000	2913.89
20	2.000000	2925.64
24	2.000000	2925.85
28	2.000000	2923.4
32	2.000000	2900.97
36	2.000000	2900
-26.5	2.500000	2940.35
-22.5	2.500000	2936.12
-18.5	2.500000	2919.96
-14.5	2.500000	2925.16
-10.5	2.500000	2925.95
-6.500000	2.500000	2931.06
-2.500000	2.500000	2936.38
1.500000	2.500000	2931.72
5.500000	2.500000	2918.51
9.500000	2.500000	2934.65
13.5	2.500000	2927.99
17.5	2.500000	2935.74
21.5	2.500000	2927.84
25.5	2.500000	2929.81
29.5	2.500000	2922.99
33.5	2.500000	2900
37.5	2.500000	2909.98
-25	3.000000	2936.11
-21	3.000000	2928.24
-17	3.000000	2925.98
-13	3.000000	2922.11
-9.000000	3.000000	2932.3
-5.000000	3.000000	2931.63
-1.000000	3.000000	2944.13
3.000000	3.000000	2920.83
7.000000	3.000000	2931.02
11	3.000000	2925.14
15	3.000000	2928.93
19	3.000000	2919.49
23	3.000000	2923.43
27	3.000000	2910.47
31	3.000000	2918.69
35	3.000000	2930.76
-27.5	3.500000	2928.37
-23.5	3.500000	2933.63
-19.5	3.500000	2923.37
-15.5	3.500000	2924.37
-11.5	3.500000	2926.69
-7.500000	3.500000	2935.29
-3.500000	3.500000	2934.75
0.500000	3.500000	2926.8
4.500000	3.500000	2919.76
8.500000	3.500000	2928.97
12.5	3.500000	2917.41
16.5	3.500000	2923.63
20.5	3.500000	2917.98
24.5	3.500000	2930.22
28.5	3.500000	2925.63
32.5	3.500000	2942.86
36.5	3.500000	2926.92
-26	4.000000	2943.17
-22	4.000000	2936.89
-18	4.000000	2928.33
-14	4.000000	2928.11
-10	4.000000	2927.14
-6.000000	4.000000	2929.7
-2.000000	4.000000	2933.22
2.000000	4.000000	2928.29
6.000000	4.000000	2924.93
10	4.000000	2925.7
14	4.000000	2920.65
18	4.000000	2929.48
22	4.000000	2920.01
26	4.000000	2921.46
30	4.000000	2933.33
34	4.000000	2911.23
38	4.000000	2934.21
-24.5	4.500000	2954.32
-20.5	4.500000	2945.33
-16.5	4.500000	2929.8
-12.5	4.500000	2929.4
-8.500000	4.500000	2934.15
-4.500000	4.500000	2928.47
-0.500000	4.500000	2924
3.500000	4.500000	2921.12
7.500000	4.500000	2935.55
11.5	4.500000	2925.05
15.5	4.500000	2912.5
19.5	4.500000	2928.78
23.5	4.500000	2919.9
27.5	4.500000	2928.14
31.5	4.500000	2935.64
35.5	4.500000	2922.25
-27	5.000000	2925.6
-23	5.000000	2933.94
-19	5.000000	2930.28
-15	5.000000	2932.37
-11	5.000000	2922.72
-7.000000	5.000000	2925.89
-3.000000	5.000000	2945.28
1.000000	5.000000	2924.3
5.000000	5.000000	2928.95
9.000000	5.000000	2937.14
13	5.000000	2926.78
17	5.000000	2926.65
21	5.000000	2934.31
25	5.000000	2929.57
29	5.000000	2924.84
33	5.000000	2928.01
37	5.000000	2923.66
-25.5	5.500000	2923.61
-21.5	5.500000	2926.96
-17.5	5.500000	2931.24
-13.5	5.500000	2926.85
-9.500000	5.500000	2922.12
-5.500000	5.500000	2925.43
-1.500000	5.500000	2939.49
2.500000	5.500000	2927.03
6.500000	5.500000	2928.08
10.5	5.500000	2932.27
14.5	5.500000	2917.84
18.5	5.500000	2930.43
22.5	5.500000	2928.54
26.5	5.500000	2927.8
30.5	5.500000	2922.83
34.5	5.500000	2930.69
-28	6.000000	2935.34
-24	6.000000	2935.76
-20	6.000000	2933.58
-16	6.000000	2923.3
-12	6.000000	2924.24
-8.000000	6.000000	2928.6
-4.000000	6.000000	2928.12
0.000000	6.000000	2935.69
4.000000	6.000000	2919.59
8.000000	6.000000	2929.04
12	6.000000	2932.11
16	6.000000	2923.52
20	6.000000	2927.09
24	6.000000	2924.15
28	6.000000	2924.03
32	6.000000	2927.7
36	6.000000	2931.27
-26.5	6.500000	2929.08
-22.5	6.500000	2921.92
-18.5	6.500000	2931.76
-14.5	6.500000	2921.41
-10.5	6.500000	2928.56
-6.500000	6.500000	2929.33
-2.500000	6.500000	2934.31
1.500000	6.500000	2933.27
5.500000	6.500000	2921.84
9.500000	6.500000	2935.68
13.5	6.500000	2923.61
17.5	6.500000	2923.48
21.5	6.500000	2936.71
25.5	6.500000	2930.48
29.5	6.500000	2921.97
33.5	6.500000	2932.63
37.5	6.500000	2927.25
-25	7.000000	2979.01
-21	7.000000	2931.26
-17	7.000000	2931.14
-13	7.000000	2932.25
-9.000000	7.000000	2929.39
-5.000000	7.000000	2930.79
-1.000000	7.000000	2929.34
3.000000	7.000000	2929.42
7.000000	7.000000	2927.63
11	7.000000	2925.6
15	7.000000	2928.43
19	7.000000	2924.78
23	7.000000	2935.75
27	7.000000	2931.14
31	7.000000	2920.12
35	7.000000	2933.68
-27.5	7.500000	2931.36
-23.5	7.500000	2948.21
-19.5	7.500000	2927.05
-15.5	7.500000	2927.45
-11.5	7.500000	2923.31
-7.500000	7.500000	2928.51
-3.500000	7.500000	2931.32
0.500000	7.500000	2930.94
4.500000	7.500000	2929.81
8.500000	7.500000	2934.49
12.5	7.500000	2921.7
16.5	7.500000	2918.65
20.5	7.500000	2930.02
24.5	7.500000	2927.63
28.5	7.500000	2909.27
32.5	7.500000	2938.22
36.5	7.500000	2930.55
-26	8.000000	2921.85
-22	8.000000	2932.69
-18	8.000000	2931.43
-14	8.000000	2922.64
-10	8.000000	2924.22
-6.000000	8.000000	2925.27
-2.000000	8.000000	2930.1
2.000000	8.000000	2923.1
6.000000	8.000000	2928.67
10	8.000000	2928.7
14	8.000000	2919.62
18	8.000000	2929.85
22	8.000000	2926.91
26	8.000000	2932.89
30	8.000000	2928.11
34	8.000000	2933.83
38	8.000000	2924.9
-24.5	8.500000	2951.84
-20.5	8.500000	2923.65
-16.5	8.500000	2930.56
-12.5	8.500000	2927.7
-8.500000	8.500000	2924.78
-4.500000	8.500000	2924.76
-0.500000	8.500000	2925.25
3.500000	8.500000	2937.59
7.500000	8.500000	2928.37
11.5	8.500000	2915.89
15.5	8.500000	2934.01
19.5	8.500000	2928.26
23.5	8.500000	2926.77
27.5	8.500000	2924.33
31.5	8.500000	2931.66
35.5	8.500000	2930.49
-27	9.000000	2921.93
-23	9.000000	2920.75
-19	9.000000	2938.71
-15	9.000000	2932.08
-11	9.000000	2929.48
-7.000000	9.000000	2920.9
-3.000000	9.000000	2919.81
1.000000	9.000000	2931.99
5.000000	9.000000	2924.85
9.000000	9.000000	2929.72
13	9.000000	2923.56
17	9.000000	2922.26
21	9.000000	2927.34
25	9.000000	2924.54
29	9.000000	2931.72
33	9.000000	2930.65
37	9.000000	2925.39
-25.5	9.500000	2925.82
-21.5	9.500000	2933.26
-17.5	9.500000	2927.17
-13.5	9.500000	2929.18
-9.500000	9.500000	2925.1
-5.500000	9.500000	2932.48
-1.500000	9.500000	2915.92
2.500000	9.500000	2927.97
6.500000	9.500000	2931.08
10.5	9.500000	2926.1
14.5	9.500000	2920.57
18.5	9.500000	2912.89
22.5	9.500000	2918.44
26.5	9.500000	2926.95
30.5	9.500000	2929.8
34.5	9.500000	2924.54
-28	10	2946.41
-24	10	2933.4
-20	10	2932.29
-16	10	2925.27
-12	10	2921.49
-8.000000	10	2926.39
-4.000000	10	2926.98
0.000000	10	2932.05
4.000000	10	2937.41
8.000000	10	2928.08
12	10	2926.28
16	10	2921.12
20	10	2922.94
24	10	2930.56
28	10	2929.29
32	10	2930.08
36	10	2918.81
-26.5	10.5	2900
-22.5	10.5	2925.19
-18.5	10.5	2921.1
-14.5	10.5	2920.49
-10.5	10.5	2921.34
-6.500000	10.5	2926
-2.500000	10.5	2922.54
1.500000	10.5	2926.05
5.500000	10.5	2927.32
9.500000	10.5	2927.83
13.5	10.5	2923.55
17.5	10.5	2921.3
21.5	10.5	2928.35
25.5	10.5	2929.78
29.5	10.5	2930.85
33.5	10.5	2928.86
37.5	10.5	2922.77
-25	11	2968.08
-21	11	2926.16
-17	11	2922.19
-13	11	2925.01
-9.000000	11	2932.47
-5.000000	11	2922.64
-1.000000	11	2924.81
3.000000	11	2926.61
7.000000	11	2927.13
11	11	2932.5
15	11	2918.99
19	11	2927.37
23	11	2923.23
27	11	2917.92
31	11	2922.38
35	11	2925.13
-27.5	11.5	2943.75
-23.5	11.5	2924.28
-19.5	11.5	2939.59
-15.5	11.5	2934.01
-11.5	11.5	2925.09
-7.500000	11.5	2925.84
-3.500000	11.5	2919.15
0.500000	11.5	2927.42
4.500000	11.5	2927.3
8.500000	11.5	2921.88
12.5	11.5	2920.4
16.5	11.5	2917.71
20.5	11.5	2929.06
24.5	11.5	2926.84
28.5	11.5	2923.97
32.5	11.5	2922.26
36.5	11.5	2932.15
-26	12	2900.35
-22	12	2924.5
-18	12	2929.86
-14	12	2916.46
-10	12	2927.76
-6.000000	12	2926.4
-2.000000	12	2915.91
2.000000	12	2931.01
6.000000	12	2900
10	12	2940.24
14	12	2921.15
18	12	2929.27
22	12	2930.09
26	12	2921.39
30	12	2910.03
34	12	2931.7
38	12	2921.99
-24.5	12.5	2961.21
-20.5	12.5	2920.61
-16.5	12.5	2959.26
-12.5	12.5	2928.29
-8.500000	12.5	2929.27
-4.500000	12.5	2924.87
-0.500000	12.5	2926.89
3.500000	12.5	2941.32
7.500000	12.5	2917.76
11.5	12.5	2935.29
15.5	12.5	2925.54
19.5	12.5	2929.63
23.5	12.5	2928.19
27.5	12.5	2929.31
31.5	12.5	2928.97
35.5	12.5	2931
-27	13	2900
-23	13	3000
-19	13	2913.04
-15	13	2933.11
-11	13	2928.27
-7.000000	13	2927.94
-3.000000	13	2925.05
1.000000	13	2926.2
5.000000	13	3000
9.000000	13	2923.88
13	13	2922.74
17	13	2922.63
21	13	2928.76
25	13	2929.24
29	13	2926.04
33	13	2926.36
37	13	2922.36
-25.5	13.5	2900
-21.5	13.5	2909.54
-17.5	13.5	2900
-13.5	13.5	2900
-9.500000	13.5	2921.51
-5.500000	13.5	2925.5
-1.500000	13.5	2931.53
2.500000	13.5	2900
6.500000	13.5	2973.77
10.5	13.5	2942.6
14.5	13.5	2923.02
18.5	13.5	2922.61
22.5	13.5	2921.62
26.5	13.5	2924.95
30.5	13.5	2919.93
34.5	13.5	2928.38
-28	14	2903.98
-24	14	2900
-20	14	2967.89
-16	14	2923.53
-12	14	2926.94
-8.000000	14	2928.95
-4.000000	14	2918.21
0.000000	14	2935.7
4.000000	14	2912.51
8.000000	14	2949.04
12	14	2929.66
16	14	2913.15
20	14	2928.69
24	14	2927.18
28	14	2920.15
32	14	2923.56
36	14	2930.08
-26.5	14.5	2942.86
-22.5	14.5	2924.15
-18.5	14.5	2916.27
-14.5	14.5	2959.36
-10.5	14.5	2926.12
-6.500000	14.5	2920.76
-2.500000	14.5	2925.43
1.500000	14.5	2914.81
5.500000	14.5	2926.91
9.500000	14.5	2926.97
13.5	14.5	2933.12
17.5	14.5	2918.6
21.5	14.5	2919.7
25.5	14.5	2924.6
29.5	14.5	2927.69
33.5	14.5	2929.58
37.5	14.5	2919.66
-25	15	2900
-21	15	2900.48
-17	15	2905.08
-13	15	2999.85
-9.000000	15	2929.92
-5.000000	15	2910.88
-1.000000	15	2915.98
3.000000	15	2916.9
7.000000	15	2951.55
11	15	2928.16
15	15	2925.13
19	15	2928.2
23	15	2915.9
27	15	2924.24
31	15	2922.19
35	15	2927.36
-27.5	15.5	3000
-23.5	15.5	2900
-19.5	15.5	2914.72
-15.5	15.5	2928.85
-11.5	15.5	2926.33
-7.500000	15.5	2912.39
-3.500000	15.5	2962.09
0.500000	15.5	2919.15
4.500000	15.5	2958.03
8.500000	15.5	2920.48
12.5	15.5	2930.18
16.5	15.5	2914.4
20.5	15.5	2926.41
24.5	15.5	2925.48
28.5	15.5	2924.47
32.5	15.5	2920.44
36.5	15.5	2935.01
-26	16	2911.24
-22	16	2963.13
-18	16	2900
-14	16	2900.23
-10	16	2924.72
-6.000000	16	2905.24
-2.000000	16	2922.84
2.000000	16	2928.68
6.000000	16	2954.19
10	16	2930.37
14	16	2929.26
18	16	2927.97
22	16	2926.31
26	16	2918.19
30	16	2915.3
34	16	2923.53
38	16	2931.58
-24.5	16.5	2949.57
-20.5	16.5	2942.96
-16.5	16.5	2901.59
-12.5	16.5	2921.6
-8.500000	16.5	2923.94
-4.500000	16.5	2910.84
-0.500000	16.5	2930.19
3.500000	16.5	2924.65
7.500000	16.5	3000
11.5	16.5	2931.92
15.5	16.5	2919.92
19.5	16.5	2929.46
23.5	16.5	2926.89
27.5	16.5	2922.64
31.5	16.5	2961.98
35.5	16.5	2913.85
-27	17	2921.33
-23	17	3000
-19	17	2902.49
-15	17	2967.41
-11	17	2930.04
-7.000000	17	2900
-3.000000	17	2933.53
1.000000	17	2928.58
5.000000	17	2924.88
9.000000	17	2918.9
13	17	2933.39
17	17	2919.03
21	17	2933.94
25	17	2928.5
29	17	2916.08
33	17	2919.26
37	17	2947.28
-25.5	17.5	3000
-21.5	17.5	2900
-17.5	17.5	2900
-13.5	17.5	2921.79
-9.500000	17.5	2925.47
-5.500000	17.5	2947.9
-1.500000	17.5	2977.63
2.500000	17.5	2929.69
6.500000	17.5	2989.53
10.5	17.5	2930.34
14.5	17.5	2932.39
18.5	17.5	2931.83
22.5	17.5	2927.44
26.5	17.5	2936.89
30.5	17.5	2925.41
34.5	17.5	2907.57
-28	18	2914.89
-24	18	2939.33
-20	18	2900
-16	18	2904.6
-12	18	2918.24
-8.000000	18	2923.15
-4.000000	18	2976.73
0.000000	18	2919.63
4.000000	18	2923.86
8.000000	18	2966.01
12	18	2926.4
16	18	2934.04
20	18	2929.9
24	18	2926.12
28	18	2929.39
32	18	2948.12
36	18	2951.4
-26.5	18.5	2932.06
-22.5	18.5	2900
-18.5	18.5	2985.89
-14.5	18.5	2917.64
-10.5	18.5	2935.3
-6.500000	18.5	3000
-2.500000	18.5	2926.48
1.500000	18.5	2933.71
5.500000	18.5	2908.71
9.500000	18.5	2931.97
13.5	18.5	2926.64
17.5	18.5	2925.55
21.5	18.5	2928.11
25.5	18.5	2931.87
29.5	18.5	2900
33.5	18.5	2927.09
37.5	18.5	2934.15
-25	19	2901.95
-21	19	2912.31
-17	19	2959.59
-13	19	2923.57
-9.000000	19	2934.98
-5.000000	19	2941.13
-1.000000	19	2937.81
3.000000	19	2941.73
7.000000	19	2900
11	19	2935.62
15	19	2932.45
19	19	2933.8
23	19	2931.24
27	19	2938.3
31	19	2933.44
35	19	2922.49
-27.5	19.5	2930.73
-23.5	19.5	2900
-19.5	19.5	2901.71
-15.5	19.5	2976.96
-11.5	19.5	2934.64
-7.500000	19.5	2906.99
-3.500000	19.5	2928.02
0.500000	19.5	2927.69
4.500000	19.5	2941.61
8.500000	19.5	2900
12.5	19.5	2916.83
16.5	19.5	2929.98
20.5	19.5	2935.84
24.5	19.5	2916.1
28.5	19.5	2900
32.5	19.5	2920.78
36.5	19.5	2920.83
-26	20	2900
-22	20	2919.28
-18	20	2980.08
-14	20	2921.68
-10	20	2932.29
-6.000000	20	2931.62
-2.000000	20	2913.95
2.000000	20	2931.9
6.000000	20	2947.8
10	20	2932.41
14	20	2932.27
18	20	2929.95
22	20	2931.44
26	20	2900
30	20	2956.95
34	20	2916.69
38	20	2916.46