File: data/derived_data/raman/20170920_Gr-NH2_for_Radisurf/20170920 Gr-NH for Radisurf map 1/DDp int.txt
#XList		#YList		#IList
-28	-22	1.447353
-24	-22	49.1354
-20	-22	14.6688
-16	-22	40.6671
-12	-22	39.9675
-8.000000	-22	77.7611
-4.000000	-22	60.9085
0.000000	-22	67.8297
4.000000	-22	11.4803
8.000000	-22	81.8751
12	-22	69.0681
16	-22	66.1171
20	-22	121.383
24	-22	5.471016
28	-22	0.000000
32	-22	15.8301
36	-22	22.2529
-26.5	-21.5	0.000000
-22.5	-21.5	35.9831
-18.5	-21.5	40.2629
-14.5	-21.5	52.8202
-10.5	-21.5	46.2671
-6.500000	-21.5	48.9452
-2.500000	-21.5	45.9751
1.500000	-21.5	10.918
5.500000	-21.5	64.2045
9.500000	-21.5	51.0676
13.5	-21.5	54.9317
17.5	-21.5	45.0067
21.5	-21.5	82.6893
25.5	-21.5	10.5878
29.5	-21.5	9.986495
33.5	-21.5	0.000000
37.5	-21.5	0.000000
-25	-21	29.2199
-21	-21	46.8182
-17	-21	42.9242
-13	-21	20.1244
-9.000000	-21	61.3714
-5.000000	-21	53.248
-1.000000	-21	36.4112
3.000000	-21	15.9175
7.000000	-21	38.8264
11	-21	47.5217
15	-21	51.1593
19	-21	59.4791
23	-21	59.616
27	-21	49.4646
31	-21	12.7147
35	-21	0.000000
-27.5	-20.5	0.000000
-23.5	-20.5	36.6927
-19.5	-20.5	43.7293
-15.5	-20.5	52.863
-11.5	-20.5	0.000000
-7.500000	-20.5	35.0353
-3.500000	-20.5	41.8294
0.500000	-20.5	5.763625
4.500000	-20.5	43.5662
8.500000	-20.5	47.1334
12.5	-20.5	46.1142
16.5	-20.5	50.8452
20.5	-20.5	68.2373
24.5	-20.5	47.6385
28.5	-20.5	27.9858
32.5	-20.5	0.036628
36.5	-20.5	0.000000
-26	-20	11.8034
-22	-20	44.2342
-18	-20	55.3005
-14	-20	16.8949
-10	-20	39.192
-6.000000	-20	5.289518
-2.000000	-20	11.1702
2.000000	-20	0.000000
6.000000	-20	53.4555
10	-20	45.2915
14	-20	36.1163
18	-20	9.180810
22	-20	57.4172
26	-20	1.566447
30	-20	21.5736
34	-20	0.504225
38	-20	8.386568
-24.5	-19.5	25.3313
-20.5	-19.5	52.4884
-16.5	-19.5	42.2955
-12.5	-19.5	0.000000
-8.500000	-19.5	39.0244
-4.500000	-19.5	51.8308
-0.500000	-19.5	48.0775
3.500000	-19.5	34.7449
7.500000	-19.5	48.7552
11.5	-19.5	35.5234
15.5	-19.5	46.4626
19.5	-19.5	62.8252
23.5	-19.5	66.623
27.5	-19.5	7.733864
31.5	-19.5	7.492879
35.5	-19.5	0.000000
-27	-19	0.946345
-23	-19	24.2225
-19	-19	38.6614
-15	-19	34.1425
-11	-19	0.000000
-7.000000	-19	5.838215
-3.000000	-19	37.1685
1.000000	-19	0.707135
5.000000	-19	47.7615
9.000000	-19	40.1441
13	-19	31.231
17	-19	22.2006
21	-19	58.7326
25	-19	7.609426
29	-19	53.0068
33	-19	2.208065
37	-19	0.000000
-25.5	-18.5	23.3892
-21.5	-18.5	11.2801
-17.5	-18.5	40.0861
-13.5	-18.5	3.863018
-9.500000	-18.5	0.103479
-5.500000	-18.5	26.4333
-1.500000	-18.5	50.5057
2.500000	-18.5	28.0586
6.500000	-18.5	48.6367
10.5	-18.5	45.1339
14.5	-18.5	40.1899
18.5	-18.5	59.2724
22.5	-18.5	65.0105
26.5	-18.5	44.7709
30.5	-18.5	43.6446
34.5	-18.5	35.9599
-28	-18	1.621891
-24	-18	2.783467
-20	-18	7.057759
-16	-18	36.1429
-12	-18	0.000000
-8.000000	-18	1.895967
-4.000000	-18	54.0122
0.000000	-18	21.4897
4.000000	-18	56.8535
8.000000	-18	41.8963
12	-18	28.8506
16	-18	36.6947
20	-18	55.3147
24	-18	24.659
28	-18	12.1884
32	-18	0.000000
36	-18	40.3802
-26.5	-17.5	1.427208
-22.5	-17.5	0.000000
-18.5	-17.5	21.6824
-14.5	-17.5	37.4478
-10.5	-17.5	5.744151
-6.500000	-17.5	3.391417
-2.500000	-17.5	58.1136
1.500000	-17.5	39.0164
5.500000	-17.5	45.7594
9.500000	-17.5	53.7244
13.5	-17.5	34.0629
17.5	-17.5	48.2825
21.5	-17.5	55.9718
25.5	-17.5	47.1677
29.5	-17.5	31.4045
33.5	-17.5	0.000000
37.5	-17.5	3.977751
-25	-17	0.000000
-21	-17	0.000000
-17	-17	30.1396
-13	-17	24.9513
-9.000000	-17	3.583725
-5.000000	-17	34.5041
-1.000000	-17	22.8027
3.000000	-17	30.0657
7.000000	-17	52.3031
11	-17	47.4023
15	-17	41.6192
19	-17	55.4296
23	-17	20.5047
27	-17	37.346
31	-17	44.8822
35	-17	2.171134
-27.5	-16.5	15.5221
-23.5	-16.5	1.885728
-19.5	-16.5	42.4949
-15.5	-16.5	42.8736
-11.5	-16.5	30.4454
-7.500000	-16.5	12.8461
-3.500000	-16.5	54.7798
0.500000	-16.5	16.1115
4.500000	-16.5	55.7568
8.500000	-16.5	44.2859
12.5	-16.5	28.7452
16.5	-16.5	45.1394
20.5	-16.5	39.1627
24.5	-16.5	50.3363
28.5	-16.5	50.7694
32.5	-16.5	5.249043
36.5	-16.5	0.752924
-26	-16	7.869607
-22	-16	1.789757
-18	-16	54.6694
-14	-16	38.2053
-10	-16	39.7035
-6.000000	-16	53.3636
-2.000000	-16	47.1405
2.000000	-16	35.2005
6.000000	-16	50.7168
10	-16	45.5108
14	-16	40.9347
18	-16	37.8674
22	-16	31.9897
26	-16	35.8955
30	-16	34.1158
34	-16	11.7869
38	-16	2.694716
-24.5	-15.5	0.000000
-20.5	-15.5	4.850145
-16.5	-15.5	61.8235
-12.5	-15.5	41.5944
-8.500000	-15.5	49.7522
-4.500000	-15.5	61.1111
-0.500000	-15.5	23.2525
3.500000	-15.5	27.8484
7.500000	-15.5	45.214
11.5	-15.5	44.6485
15.5	-15.5	41.7066
19.5	-15.5	25.861
23.5	-15.5	8.301166
27.5	-15.5	24.6423
31.5	-15.5	14.6213
35.5	-15.5	46.8166
-27	-15	7.641593
-23	-15	47.4044
-19	-15	48.8959
-15	-15	65.7207
-11	-15	51.5957
-7.000000	-15	56.3001
-3.000000	-15	62.1038
1.000000	-15	39.2401
5.000000	-15	51.2815
9.000000	-15	45.833
13	-15	35.8103
17	-15	38.2475
21	-15	26.753
25	-15	5.571346
29	-15	14.6645
33	-15	6.745051
37	-15	17.6836
-25.5	-14.5	0.876237
-21.5	-14.5	3.692462
-17.5	-14.5	63.7803
-13.5	-14.5	47.7852
-9.500000	-14.5	58.0274
-5.500000	-14.5	48.7659
-1.500000	-14.5	46.652
2.500000	-14.5	37.0863
6.500000	-14.5	53.8728
10.5	-14.5	36.5155
14.5	-14.5	42.164
18.5	-14.5	22.3919
22.5	-14.5	5.654248
26.5	-14.5	5.426643
30.5	-14.5	17.4541
34.5	-14.5	12.2479
-28	-14	0.000000
-24	-14	0.000000
-20	-14	0.000000
-16	-14	54.4901
-12	-14	49.8369
-8.000000	-14	54.1957
-4.000000	-14	56.3801
0.000000	-14	45.6287
4.000000	-14	33.536
8.000000	-14	44.9378
12	-14	43.3472
16	-14	49.8344
20	-14	5.105544
24	-14	34.4637
28	-14	24.3109
32	-14	34.5122
36	-14	27.1764
-26.5	-13.5	5.884688
-22.5	-13.5	0.000000
-18.5	-13.5	30.6524
-14.5	-13.5	58.841
-10.5	-13.5	10.3004
-6.500000	-13.5	62.6498
-2.500000	-13.5	55.6797
1.500000	-13.5	42.1304
5.500000	-13.5	47.5472
9.500000	-13.5	25.4442
13.5	-13.5	35.3414
17.5	-13.5	43.282
21.5	-13.5	0.321540
25.5	-13.5	14.239
29.5	-13.5	18.3951
33.5	-13.5	26.1112
37.5	-13.5	14.8198
-25	-13	0.000000
-21	-13	10.8726
-17	-13	27.704
-13	-13	59.3595
-9.000000	-13	57.4443
-5.000000	-13	60.2496
-1.000000	-13	40.6504
3.000000	-13	41.0844
7.000000	-13	64.4184
11	-13	12.1944
15	-13	20.3126
19	-13	8.692403
23	-13	33.7039
27	-13	26.4772
31	-13	3.329162
35	-13	10.1681
-27.5	-12.5	13.4848
-23.5	-12.5	33.539
-19.5	-12.5	6.068027
-15.5	-12.5	53.2083
-11.5	-12.5	39.1088
-7.500000	-12.5	58.0547
-3.500000	-12.5	47.6625
0.500000	-12.5	37.1338
4.500000	-12.5	11.476
8.500000	-12.5	13.8181
12.5	-12.5	2.525736
16.5	-12.5	38.9641
20.5	-12.5	24.8877
24.5	-12.5	66.7259
28.5	-12.5	27.5346
32.5	-12.5	5.856009
36.5	-12.5	20.0201
-26	-12	34.4359
-22	-12	1.351139
-18	-12	53.9449
-14	-12	62.5586
-10	-12	67.5919
-6.000000	-12	65.544
-2.000000	-12	49.3602
2.000000	-12	39.4119
6.000000	-12	40.1268
10	-12	2.086375
14	-12	2.992207
18	-12	39.0504
22	-12	1.625025
26	-12	26.894
30	-12	44.3325
34	-12	11.0784
38	-12	4.846848
-24.5	-11.5	7.740365
-20.5	-11.5	0.000000
-16.5	-11.5	63.3624
-12.5	-11.5	28.5929
-8.500000	-11.5	66.3519
-4.500000	-11.5	49.2173
-0.500000	-11.5	33.9813
3.500000	-11.5	44.5742
7.500000	-11.5	63.2163
11.5	-11.5	0.000000
15.5	-11.5	3.436031
19.5	-11.5	17.3297
23.5	-11.5	56.5266
27.5	-11.5	1.354201
31.5	-11.5	1.742391
35.5	-11.5	18.5443
-27	-11	6.223940
-23	-11	20.2531
-19	-11	56.1619
-15	-11	57.7213
-11	-11	39.235
-7.000000	-11	51.9773
-3.000000	-11	61.6456
1.000000	-11	33.8568
5.000000	-11	33.5453
9.000000	-11	40.453
13	-11	2.797967
17	-11	34.4312
21	-11	43.7249
25	-11	49.7149
29	-11	6.180886
33	-11	76.3965
37	-11	8.686902
-25.5	-10.5	3.038598
-21.5	-10.5	5.264042
-17.5	-10.5	65.8341
-13.5	-10.5	37.7782
-9.500000	-10.5	57.6986
-5.500000	-10.5	42.2331
-1.500000	-10.5	20.3611
2.500000	-10.5	37.9866
6.500000	-10.5	49.7024
10.5	-10.5	18.5678
14.5	-10.5	0.000000
18.5	-10.5	28.262
22.5	-10.5	18.3245
26.5	-10.5	42.4011
30.5	-10.5	1.969692
34.5	-10.5	0.000000
-28	-10	33.5663
-24	-10	9.332755
-20	-10	32.4209
-16	-10	71.144
-12	-10	26.7632
-8.000000	-10	52.5931
-4.000000	-10	42.352
0.000000	-10	51.7744
4.000000	-10	49.9126
8.000000	-10	33.7974
12	-10	9.403399
16	-10	11.8263
20	-10	20.4154
24	-10	54.0712
28	-10	0.772948
32	-10	0.114824
36	-10	1.124209
-26.5	-9.500000	5.598399
-22.5	-9.500000	52.0026
-18.5	-9.500000	66.485
-14.5	-9.500000	62.8885
-10.5	-9.500000	11.9103
-6.500000	-9.500000	44.4974
-2.500000	-9.500000	43.3931
1.500000	-9.500000	45.6057
5.500000	-9.500000	36.9919
9.500000	-9.500000	32.4816
13.5	-9.500000	13.9257
17.5	-9.500000	7.137386
21.5	-9.500000	28.5095
25.5	-9.500000	54.5289
29.5	-9.500000	1.842583
33.5	-9.500000	28.3613
37.5	-9.500000	6.386006
-25	-9.000000	6.227896
-21	-9.000000	6.237623
-17	-9.000000	56.9191
-13	-9.000000	18.9144
-9.000000	-9.000000	66.479
-5.000000	-9.000000	47.3659
-1.000000	-9.000000	64.8056
3.000000	-9.000000	70.0081
7.000000	-9.000000	13.6827
11	-9.000000	34.0476
15	-9.000000	4.196847
19	-9.000000	41.7157
23	-9.000000	63.2784
27	-9.000000	14.8354
31	-9.000000	1.966525
35	-9.000000	6.814760
-27.5	-8.500000	6.755787
-23.5	-8.500000	67.9094
-19.5	-8.500000	26.0474
-15.5	-8.500000	65.8337
-11.5	-8.500000	5.914072
-7.500000	-8.500000	53.1088
-3.500000	-8.500000	47.9055
0.500000	-8.500000	65.082
4.500000	-8.500000	43.6635
8.500000	-8.500000	55.1029
12.5	-8.500000	18.8483
16.5	-8.500000	22.3269
20.5	-8.500000	48.1472
24.5	-8.500000	37.8629
28.5	-8.500000	12.765
32.5	-8.500000	41.8459
36.5	-8.500000	1.678127
-26	-8.000000	0.000000
-22	-8.000000	68.6105
-18	-8.000000	69.5981
-14	-8.000000	70.7602
-10	-8.000000	53.7273
-6.000000	-8.000000	44.6694
-2.000000	-8.000000	35.8605
2.000000	-8.000000	41.5256
6.000000	-8.000000	13.038
10	-8.000000	39.7001
14	-8.000000	46.1378
18	-8.000000	29.0397
22	-8.000000	50.3721
26	-8.000000	49.9945
30	-8.000000	28.8864
34	-8.000000	46.5284
38	-8.000000	2.782204
-24.5	-7.500000	29.0669
-20.5	-7.500000	65.7028
-16.5	-7.500000	65.8904
-12.5	-7.500000	49.8728
-8.500000	-7.500000	57.7937
-4.500000	-7.500000	50.5097
-0.500000	-7.500000	58.7672
3.500000	-7.500000	49.4699
7.500000	-7.500000	15.4088
11.5	-7.500000	25.5995
15.5	-7.500000	48.4875
19.5	-7.500000	28.5891
23.5	-7.500000	27.9223
27.5	-7.500000	19.5236
31.5	-7.500000	19.4226
35.5	-7.500000	21.4311
-27	-7.000000	2.673907
-23	-7.000000	75.9951
-19	-7.000000	74.4941
-15	-7.000000	53.8599
-11	-7.000000	14.6536
-7.000000	-7.000000	60.5306
-3.000000	-7.000000	37.0968
1.000000	-7.000000	62.5692
5.000000	-7.000000	13.4731
9.000000	-7.000000	36.2601
13	-7.000000	22.0916
17	-7.000000	47.6972
21	-7.000000	45.0062
25	-7.000000	32.4221
29	-7.000000	8.892663
33	-7.000000	40.5659
37	-7.000000	30.202
-25.5	-6.500000	0.000000
-21.5	-6.500000	69.7762
-17.5	-6.500000	68.3983
-13.5	-6.500000	68.3186
-9.500000	-6.500000	35.3564
-5.500000	-6.500000	46.8037
-1.500000	-6.500000	41.0692
2.500000	-6.500000	33.2965
6.500000	-6.500000	12.4955
10.5	-6.500000	34.6692
14.5	-6.500000	38.6359
18.5	-6.500000	38.0139
22.5	-6.500000	44.7675
26.5	-6.500000	9.057487
30.5	-6.500000	25.0349
34.5	-6.500000	33.0109
-28	-6.000000	22.3231
-24	-6.000000	51.9653
-20	-6.000000	72.3302
-16	-6.000000	65.5894
-12	-6.000000	42.8683
-8.000000	-6.000000	42.4296
-4.000000	-6.000000	46.9338
0.000000	-6.000000	34.07
4.000000	-6.000000	60.2557
8.000000	-6.000000	45.9142
12	-6.000000	47.2292
16	-6.000000	67.2906
20	-6.000000	47.0747
24	-6.000000	51.2668
28	-6.000000	28.9609
32	-6.000000	6.615759
36	-6.000000	31.6427
-26.5	-5.500000	5.980107
-22.5	-5.500000	71.3902
-18.5	-5.500000	55.3909
-14.5	-5.500000	70.8467
-10.5	-5.500000	4.120461
-6.500000	-5.500000	14.455
-2.500000	-5.500000	12.241
1.500000	-5.500000	24.2965
5.500000	-5.500000	33.339
9.500000	-5.500000	40.9276
13.5	-5.500000	62.6502
17.5	-5.500000	58.5208
21.5	-5.500000	31.1184
25.5	-5.500000	26.1301
29.5	-5.500000	9.519877
33.5	-5.500000	31.9878
37.5	-5.500000	38.0382
-25	-5.000000	0.000000
-21	-5.000000	78.3356
-17	-5.000000	65.6577
-13	-5.000000	13.6128
-9.000000	-5.000000	3.365362
-5.000000	-5.000000	3.593913
-1.000000	-5.000000	49.1983
3.000000	-5.000000	37.8898
7.000000	-5.000000	16.7155
11	-5.000000	48.2668
15	-5.000000	48.1879
19	-5.000000	36.8393
23	-5.000000	40.355
27	-5.000000	32.2295
31	-5.000000	19.511
35	-5.000000	36.7631
-27.5	-4.500000	13.8633
-23.5	-4.500000	32.7358
-19.5	-4.500000	61.5656
-15.5	-4.500000	52.1182
-11.5	-4.500000	4.659258
-7.500000	-4.500000	2.064717
-3.500000	-4.500000	4.480618
0.500000	-4.500000	48.4
4.500000	-4.500000	19.7516
8.500000	-4.500000	30.9795
12.5	-4.500000	60.4311
16.5	-4.500000	52.5763
20.5	-4.500000	29.5526
24.5	-4.500000	37.5258
28.5	-4.500000	40.1243
32.5	-4.500000	14.863
36.5	-4.500000	32.7297
-26	-4.000000	3.882083
-22	-4.000000	75.7611
-18	-4.000000	60.1428
-14	-4.000000	32.8639
-10	-4.000000	0.000000
-6.000000	-4.000000	0.172607
-2.000000	-4.000000	46.4769
2.000000	-4.000000	27.8788
6.000000	-4.000000	0.715186
10	-4.000000	20.2991
14	-4.000000	33.0702
18	-4.000000	39.912
22	-4.000000	32.9687
26	-4.000000	23.4854
30	-4.000000	17.5835
34	-4.000000	34.9221
38	-4.000000	40.0096
-24.5	-3.500000	8.525089
-20.5	-3.500000	58.4056
-16.5	-3.500000	45.0563
-12.5	-3.500000	11.4318
-8.500000	-3.500000	0.000000
-4.500000	-3.500000	6.168623
-0.500000	-3.500000	44.7486
3.500000	-3.500000	12.4518
7.500000	-3.500000	6.270032
11.5	-3.500000	39.4033
15.5	-3.500000	33.4168
19.5	-3.500000	31.2115
23.5	-3.500000	43.8141
27.5	-3.500000	41.5246
31.5	-3.500000	2.229722
35.5	-3.500000	18.9841
-27	-3.000000	4.322416
-23	-3.000000	17.7697
-19	-3.000000	40.5975
-15	-3.000000	44.2803
-11	-3.000000	0.773894
-7.000000	-3.000000	86.1875
-3.000000	-3.000000	5.160182
1.000000	-3.000000	52.3919
5.000000	-3.000000	10.2176
9.000000	-3.000000	14.777
13	-3.000000	33.9996
17	-3.000000	38.5059
21	-3.000000	30.7832
25	-3.000000	33.3756
29	-3.000000	46.1136
33	-3.000000	3.325203
37	-3.000000	17.8758
-25.5	-2.500000	2.034672
-21.5	-2.500000	10.7065
-17.5	-2.500000	48.8039
-13.5	-2.500000	18.1671
-9.500000	-2.500000	3.798606
-5.500000	-2.500000	0.000000
-1.500000	-2.500000	46.324
2.500000	-2.500000	32.6576
6.500000	-2.500000	10.3043
10.5	-2.500000	54.8532
14.5	-2.500000	32.5508
18.5	-2.500000	34.036
22.5	-2.500000	32.517
26.5	-2.500000	24.9788
30.5	-2.500000	5.765411
34.5	-2.500000	41.972
-28	-2.000000	19.2141
-24	-2.000000	1.029378
-20	-2.000000	3.371158
-16	-2.000000	40.4617
-12	-2.000000	5.034650
-8.000000	-2.000000	3.483736
-4.000000	-2.000000	1.085862
0.000000	-2.000000	41.8279
4.000000	-2.000000	0.000000
8.000000	-2.000000	5.362894
12	-2.000000	42.0031
16	-2.000000	36.0006
20	-2.000000	28.0379
24	-2.000000	40.6939
28	-2.000000	46.8426
32	-2.000000	5.781028
36	-2.000000	28.2176
-26.5	-1.500000	1.734385
-22.5	-1.500000	0.000000
-18.5	-1.500000	42.7986
-14.5	-1.500000	33.0567
-10.5	-1.500000	29.5103
-6.500000	-1.500000	0.000000
-2.500000	-1.500000	3.584786
1.500000	-1.500000	31.7829
5.500000	-1.500000	18.4102
9.500000	-1.500000	47.2566
13.5	-1.500000	41.5094
17.5	-1.500000	34.4322
21.5	-1.500000	29.9755
25.5	-1.500000	37.281
29.5	-1.500000	42.2759
33.5	-1.500000	3.520084
37.5	-1.500000	43.2072
-25	-1.000000	3.066889
-21	-1.000000	2.936344
-17	-1.000000	45.2092
-13	-1.000000	25.2953
-9.000000	-1.000000	42.5829
-5.000000	-1.000000	65.0485
-1.000000	-1.000000	41.0482
3.000000	-1.000000	1.209249
7.000000	-1.000000	18.0638
11	-1.000000	53.8905
15	-1.000000	32.3993
19	-1.000000	30.7266
23	-1.000000	27.7891
27	-1.000000	40.2657
31	-1.000000	31.8185
35	-1.000000	34.0972
-27.5	-0.500000	11.4258
-23.5	-0.500000	0.000000
-19.5	-0.500000	14.8164
-15.5	-0.500000	37.6725
-11.5	-0.500000	53.3375
-7.500000	-0.500000	9.148955
-3.500000	-0.500000	5.544258
0.500000	-0.500000	16.4096
4.500000	-0.500000	8.398692
8.500000	-0.500000	48.6734
12.5	-0.500000	40.4986
16.5	-0.500000	39.9819
20.5	-0.500000	28.5975
24.5	-0.500000	38.7079
28.5	-0.500000	49.7529
32.5	-0.500000	2.013467
36.5	-0.500000	17.2687
-26	0.000000	29.8525
-22	0.000000	2.805247
-18	0.000000	48.39
-14	0.000000	53.596
-10	0.000000	57.5799
-6.000000	0.000000	0.940833
-2.000000	0.000000	29.194
2.000000	0.000000	3.665647
6.000000	0.000000	28.9609
10	0.000000	55.0506
14	0.000000	39.0593
18	0.000000	38.7707
22	0.000000	31.2207
26	0.000000	44.7292
30	0.000000	52.6863
34	0.000000	4.332316
38	0.000000	42.3264
-24.5	0.500000	22.666
-20.5	0.500000	5.477118
-16.5	0.500000	41.6022
-12.5	0.500000	57.195
-8.500000	0.500000	43.3291
-4.500000	0.500000	1.193661
-0.500000	0.500000	48.0725
3.500000	0.500000	22.3469
7.500000	0.500000	25.6762
11.5	0.500000	46.3204
15.5	0.500000	40.3534
19.5	0.500000	34.2992
23.5	0.500000	31.8482
27.5	0.500000	47.0116
31.5	0.500000	15.007
35.5	0.500000	1.259971
-27	1.000000	29.7695
-23	1.000000	70.1045
-19	1.000000	53.6415
-15	1.000000	42.4277
-11	1.000000	59.2852
-7.000000	1.000000	2.406822
-3.000000	1.000000	11.5256
1.000000	1.000000	37.9852
5.000000	1.000000	58.461
9.000000	1.000000	50.9146
13	1.000000	39.2961
17	1.000000	40.8993
21	1.000000	35.6541
25	1.000000	39.719
29	1.000000	54.6531
33	1.000000	9.344199
37	1.000000	5.451723
-25.5	1.500000	47.093
-21.5	1.500000	42.1429
-17.5	1.500000	55.244
-13.5	1.500000	58.9903
-9.500000	1.500000	45.1178
-5.500000	1.500000	2.250290
-1.500000	1.500000	13.1179
2.500000	1.500000	29.0325
6.500000	1.500000	41.5639
10.5	1.500000	62.6949
14.5	1.500000	45.8594
18.5	1.500000	34.2869
22.5	1.500000	30.7695
26.5	1.500000	45.7315
30.5	1.500000	39.5399
34.5	1.500000	0.013448
-28	2.000000	58.2022
-24	2.000000	36.7604
-20	2.000000	24.5739
-16	2.000000	47.1636
-12	2.000000	62.8295
-8.000000	2.000000	32.1822
-4.000000	2.000000	9.845393
0.000000	2.000000	26.9468
4.000000	2.000000	45.6828
8.000000	2.000000	18.3452
12	2.000000	54.3659
16	2.000000	37.7498
20	2.000000	36.533
24	2.000000	30.2944
28	2.000000	52.1533
32	2.000000	3.405553
36	2.000000	2.823296
-26.5	2.500000	23.6105
-22.5	2.500000	66.4433
-18.5	2.500000	56.8291
-14.5	2.500000	60.4933
-10.5	2.500000	48.9531
-6.500000	2.500000	8.304722
-2.500000	2.500000	6.372323
1.500000	2.500000	69.4147
5.500000	2.500000	50.5258
9.500000	2.500000	46.2168
13.5	2.500000	50.8737
17.5	2.500000	37.2427
21.5	2.500000	28.7419
25.5	2.500000	35.8807
29.5	2.500000	51.1782
33.5	2.500000	12.1734
37.5	2.500000	4.513117
-25	3.000000	16.4496
-21	3.000000	38.0941
-17	3.000000	51.5871
-13	3.000000	67.3431
-9.000000	3.000000	40.9812
-5.000000	3.000000	4.282083
-1.000000	3.000000	11.378
3.000000	3.000000	47.0532
7.000000	3.000000	57.8734
11	3.000000	56.6681
15	3.000000	50.4375
19	3.000000	37.4536
23	3.000000	37.5412
27	3.000000	48.8611
31	3.000000	29.3161
35	3.000000	5.251775
-27.5	3.500000	50.8372
-23.5	3.500000	46.9184
-19.5	3.500000	54.0071
-15.5	3.500000	61.3788
-11.5	3.500000	53.1651
-7.500000	3.500000	26.7858
-3.500000	3.500000	25.1248
0.500000	3.500000	42.2319
4.500000	3.500000	37.4052
8.500000	3.500000	20.6015
12.5	3.500000	56.4005
16.5	3.500000	34.1344
20.5	3.500000	33.7732
24.5	3.500000	32.9097
28.5	3.500000	49.0066
32.5	3.500000	1.931931
36.5	3.500000	53.9579
-26	4.000000	44.6658
-22	4.000000	17.5905
-18	4.000000	59.4493
-14	4.000000	58.288
-10	4.000000	48.5835
-6.000000	4.000000	25.2909
-2.000000	4.000000	26.4045
2.000000	4.000000	40.9398
6.000000	4.000000	58.9673
10	4.000000	51.5075
14	4.000000	58.5152
18	4.000000	32.574
22	4.000000	35.4012
26	4.000000	40.8474
30	4.000000	26.3538
34	4.000000	9.683757
38	4.000000	47.7028
-24.5	4.500000	8.364345
-20.5	4.500000	17.7582
-16.5	4.500000	56.4221
-12.5	4.500000	62.6064
-8.500000	4.500000	46.7904
-4.500000	4.500000	33.9276
-0.500000	4.500000	38.0248
3.500000	4.500000	33.2517
7.500000	4.500000	49.4186
11.5	4.500000	54.4039
15.5	4.500000	65.9998
19.5	4.500000	37.2448
23.5	4.500000	34.0396
27.5	4.500000	38.3734
31.5	4.500000	0.000000
35.5	4.500000	47.8108
-27	5.000000	73.9748
-23	5.000000	56.1101
-19	5.000000	46.71
-15	5.000000	70.3699
-11	5.000000	65.0073
-7.000000	5.000000	31.0128
-3.000000	5.000000	13.8171
1.000000	5.000000	61.3353
5.000000	5.000000	35.4158
9.000000	5.000000	35.1654
13	5.000000	64.0001
17	5.000000	52.3469
21	5.000000	34.5176
25	5.000000	22.8516
29	5.000000	46.9844
33	5.000000	7.657822
37	5.000000	42.8193
-25.5	5.500000	24.4874
-21.5	5.500000	26.0259
-17.5	5.500000	68.6137
-13.5	5.500000	53.8093
-9.500000	5.500000	63.1327
-5.500000	5.500000	23.4887
-1.500000	5.500000	33.0737
2.500000	5.500000	42.4581
6.500000	5.500000	31.2991
10.5	5.500000	56.6572
14.5	5.500000	62.3181
18.5	5.500000	47.3996
22.5	5.500000	30.5957
26.5	5.500000	26.6623
30.5	5.500000	23.2921
34.5	5.500000	48.8133
-28	6.000000	51.1243
-24	6.000000	9.951738
-20	6.000000	46.6124
-16	6.000000	66.4414
-12	6.000000	49.3886
-8.000000	6.000000	91.0931
-4.000000	6.000000	23.5553
0.000000	6.000000	40.5811
4.000000	6.000000	44.2682
8.000000	6.000000	33.4321
12	6.000000	27.2331
16	6.000000	50.1711
20	6.000000	34.3932
24	6.000000	28.8224
28	6.000000	34.0049
32	6.000000	14.6173
36	6.000000	47.3139
-26.5	6.500000	13.4116
-22.5	6.500000	57.6068
-18.5	6.500000	48.1505
-14.5	6.500000	66.9474
-10.5	6.500000	60.0028
-6.500000	6.500000	63.3577
-2.500000	6.500000	24.995
1.500000	6.500000	50.6605
5.500000	6.500000	46.4521
9.500000	6.500000	27.5049
13.5	6.500000	59.4512
17.5	6.500000	48.0399
21.5	6.500000	30.8773
25.5	6.500000	39.7994
29.5	6.500000	37.6451
33.5	6.500000	53.295
37.5	6.500000	38.6644
-25	7.000000	2.399148
-21	7.000000	51.6066
-17	7.000000	44.4612
-13	7.000000	54.9494
-9.000000	7.000000	76.5312
-5.000000	7.000000	73.6047
-1.000000	7.000000	27.9322
3.000000	7.000000	47.0038
7.000000	7.000000	31.4826
11	7.000000	20.1494
15	7.000000	52.2101
19	7.000000	42.2855
23	7.000000	32.5394
27	7.000000	32.3151
31	7.000000	41.2387
35	7.000000	44.7619
-27.5	7.500000	4.532591
-23.5	7.500000	6.966654
-19.5	7.500000	48.6197
-15.5	7.500000	80.8844
-11.5	7.500000	57.6282
-7.500000	7.500000	66.8647
-3.500000	7.500000	34.3862
0.500000	7.500000	56.0012
4.500000	7.500000	48.2829
8.500000	7.500000	25.9876
12.5	7.500000	58.7093
16.5	7.500000	30.9231
20.5	7.500000	34.9649
24.5	7.500000	19.3056
28.5	7.500000	34.5538
32.5	7.500000	50.1493
36.5	7.500000	41.202
-26	8.000000	6.927237
-22	8.000000	56.8357
-18	8.000000	41.7667
-14	8.000000	88.8301
-10	8.000000	59.8091
-6.000000	8.000000	68.4388
-2.000000	8.000000	49.8409
2.000000	8.000000	49.8963
6.000000	8.000000	38.8359
10	8.000000	34.0299
14	8.000000	58.2176
18	8.000000	26.8708
22	8.000000	26.9374
26	8.000000	34.6842
30	8.000000	44.1443
34	8.000000	36.7681
38	8.000000	63.2743
-24.5	8.500000	0.000000
-20.5	8.500000	41.5193
-16.5	8.500000	68.977
-12.5	8.500000	72.8248
-8.500000	8.500000	68.1613
-4.500000	8.500000	62.2669
-0.500000	8.500000	62.6117
3.500000	8.500000	20.2793
7.500000	8.500000	33.1147
11.5	8.500000	55.0931
15.5	8.500000	42.0228
19.5	8.500000	28.6444
23.5	8.500000	33.131
27.5	8.500000	37.9112
31.5	8.500000	52.9227
35.5	8.500000	64.2945
-27	9.000000	2.613691
-23	9.000000	13.9553
-19	9.000000	38.9028
-15	9.000000	103.313
-11	9.000000	70.5902
-7.000000	9.000000	71.412
-3.000000	9.000000	69.2279
1.000000	9.000000	59.0397
5.000000	9.000000	25.5259
9.000000	9.000000	53.3754
13	9.000000	51.6648
17	9.000000	43.5367
21	9.000000	43.6163
25	9.000000	24.5711
29	9.000000	35.8016
33	9.000000	39.2315
37	9.000000	60.1683
-25.5	9.500000	0.000000
-21.5	9.500000	46.7792
-17.5	9.500000	46.1702
-13.5	9.500000	88.0014
-9.500000	9.500000	70.6003
-5.500000	9.500000	64.7441
-1.500000	9.500000	9.089712
2.500000	9.500000	24.439
6.500000	9.500000	25.9357
10.5	9.500000	52.5726
14.5	9.500000	60.7714
18.5	9.500000	44.1505
22.5	9.500000	29.2059
26.5	9.500000	26.4399
30.5	9.500000	51.052
34.5	9.500000	55.5035
-28	10	42.2143
-24	10	11.1017
-20	10	45.3591
-16	10	37.8725
-12	10	80.5473
-8.000000	10	74.469
-4.000000	10	73.9445
0.000000	10	44.812
4.000000	10	5.073610
8.000000	10	45.4797
12	10	55.6088
16	10	39.5509
20	10	50.0148
24	10	36.6996
28	10	28.2091
32	10	58.2418
36	10	60.4223
-26.5	10.5	4.133220
-22.5	10.5	45.7265
-18.5	10.5	5.434970
-14.5	10.5	54.0694
-10.5	10.5	73.7286
-6.500000	10.5	60.1204
-2.500000	10.5	70.1294
1.500000	10.5	53.9442
5.500000	10.5	2.409337
9.500000	10.5	34.9404
13.5	10.5	63.3231
17.5	10.5	37.7724
21.5	10.5	51.9637
25.5	10.5	37.2865
29.5	10.5	50.9192
33.5	10.5	47.8407
37.5	10.5	50.1202
-25	11	4.937399
-21	11	14.2283
-17	11	48.8392
-13	11	84.0553
-9.000000	11	72.6998
-5.000000	11	76.2356
-1.000000	11	60.486
3.000000	11	16.3701
7.000000	11	26.2848
11	11	38.4904
15	11	48.4254
19	11	39.3067
23	11	47.6958
27	11	40.4779
31	11	54.4339
35	11	45.1925
-27.5	11.5	15.2966
-23.5	11.5	9.295081
-19.5	11.5	5.979717
-15.5	11.5	6.297474
-11.5	11.5	80.0243
-7.500000	11.5	68.6387
-3.500000	11.5	87.267
0.500000	11.5	38.0699
4.500000	11.5	3.277163
8.500000	11.5	57.0879
12.5	11.5	65.2414
16.5	11.5	44.8727
20.5	11.5	49.2046
24.5	11.5	36.7561
28.5	11.5	43.5928
32.5	11.5	56.3587
36.5	11.5	50.1884
-26	12	3.660400
-22	12	52.7367
-18	12	5.740602
-14	12	4.993209
-10	12	73.6097
-6.000000	12	74.5941
-2.000000	12	72.4719
2.000000	12	21.8508
6.000000	12	0.000000
10	12	25.3083
14	12	55.3878
18	12	43.0595
22	12	46.2172
26	12	52.1743
30	12	40.3292
34	12	53.995
38	12	59.1088
-24.5	12.5	1.994456
-20.5	12.5	2.732918
-16.5	12.5	2.783272
-12.5	12.5	70.0259
-8.500000	12.5	78.0272
-4.500000	12.5	88.272
-0.500000	12.5	53.6754
3.500000	12.5	9.337338
7.500000	12.5	43.574
11.5	12.5	46.8591
15.5	12.5	47.1379
19.5	12.5	52.5069
23.5	12.5	60.4007
27.5	12.5	53.6379
31.5	12.5	58.566
35.5	12.5	47.3024
-27	13	1.666742
-23	13	1.454213
-19	13	3.850104
-15	13	0.866511
-11	13	64.5038
-7.000000	13	71.7443
-3.000000	13	78.476
1.000000	13	44.5493
5.000000	13	0.000000
9.000000	13	49.8617
13	13	46.5093
17	13	43.1082
21	13	56.5981
25	13	48.2397
29	13	47.3353
33	13	61.8939
37	13	72.5526
-25.5	13.5	1.379685
-21.5	13.5	2.955885
-17.5	13.5	82.7998
-13.5	13.5	2.664839
-9.500000	13.5	73.9804
-5.500000	13.5	58.3803
-1.500000	13.5	58.8644
2.500000	13.5	1.801273
6.500000	13.5	3.117759
10.5	13.5	16.7624
14.5	13.5	42.3842
18.5	13.5	44.1965
22.5	13.5	56.8742
26.5	13.5	52.132
30.5	13.5	59.3891
34.5	13.5	32.3403
-28	14	0.012545
-24	14	1.428425
-20	14	4.295340
-16	14	0.000000
-12	14	37.4376
-8.000000	14	54.0955
-4.000000	14	64.3065
0.000000	14	47.2968
4.000000	14	9.664972
8.000000	14	12.2088
12	14	58.6063
16	14	48.9939
20	14	61.37
24	14	46.4922
28	14	50.2442
32	14	55.7699
36	14	57.4162
-26.5	14.5	0.000000
-22.5	14.5	7.781895
-18.5	14.5	0.000000
-14.5	14.5	8.443892
-10.5	14.5	30.7562
-6.500000	14.5	26.8954
-2.500000	14.5	65.0685
1.500000	14.5	2.879612
5.500000	14.5	2.950695
9.500000	14.5	15.3253
13.5	14.5	32.327
17.5	14.5	46.8333
21.5	14.5	81.1169
25.5	14.5	61.6431
29.5	14.5	49.5282
33.5	14.5	60.3676
37.5	14.5	62.5528
-25	15	0.000000
-21	15	11.8179
-17	15	7.898868
-13	15	46.7911
-9.000000	15	37.8483
-5.000000	15	3.587450
-1.000000	15	30.305
3.000000	15	2.714999
7.000000	15	1.815578
11	15	41.7951
15	15	54.568
19	15	55.7509
23	15	47.3373
27	15	49.8915
31	15	33.7474
35	15	49
-27.5	15.5	15.5267
-23.5	15.5	0.530599
-19.5	15.5	1.906417
-15.5	15.5	0.278416
-11.5	15.5	21.2311
-7.500000	15.5	0.552731
-3.500000	15.5	3.220948
0.500000	15.5	15.0224
4.500000	15.5	7.775461
8.500000	15.5	4.311232
12.5	15.5	35.3901
16.5	15.5	60.7029
20.5	15.5	56.8061
24.5	15.5	62.5661
28.5	15.5	55.4455
32.5	15.5	54.1942
36.5	15.5	13.0427
-26	16	10.7932
-22	16	4.499151
-18	16	3.019592
-14	16	27.3944
-10	16	48.8467
-6.000000	16	16.3859
-2.000000	16	3.831962
2.000000	16	24.8462
6.000000	16	7.214616
10	16	52.1015
14	16	54.0743
18	16	54.9808
22	16	69.4433
26	16	61.465
30	16	50.6056
34	16	57.293
38	16	4.065436
-24.5	16.5	0.000000
-20.5	16.5	1.456266
-16.5	16.5	0.000000
-12.5	16.5	18.8507
-8.500000	16.5	35.6272
-4.500000	16.5	1.579897
-0.500000	16.5	4.228172
3.500000	16.5	47.7751
7.500000	16.5	0.000000
11.5	16.5	28.6919
15.5	16.5	52.0147
19.5	16.5	42.1432
23.5	16.5	70.5762
27.5	16.5	54.4552
31.5	16.5	2.943855
35.5	16.5	28.683
-27	17	5.565147
-23	17	7.741688
-19	17	1.639520
-15	17	0.262228
-11	17	60.9372
-7.000000	17	0.016665
-3.000000	17	2.196054
1.000000	17	39.7781
5.000000	17	18.4898
9.000000	17	19.3524
13	17	36.6415
17	17	63.1464
21	17	48.7872
25	17	38.1212
29	17	29.9722
33	17	20.2891
37	17	4.804495
-25.5	17.5	0.000000
-21.5	17.5	1.547615
-17.5	17.5	0.000000
-13.5	17.5	10.2121
-9.500000	17.5	34.8099
-5.500000	17.5	1.110182
-1.500000	17.5	2.873308
2.500000	17.5	42.209
6.500000	17.5	0.133416
10.5	17.5	31.5839
14.5	17.5	41.4309
18.5	17.5	41.421
22.5	17.5	62.9776
26.5	17.5	6.025951
30.5	17.5	4.719179
34.5	17.5	25.727
-28	18	1.375120
-24	18	2.633512
-20	18	7.689250
-16	18	0.000000
-12	18	38.5403
-8.000000	18	11.5786
-4.000000	18	3.139396
0.000000	18	6.740826
4.000000	18	32.6814
8.000000	18	1.482464
12	18	57.4763
16	18	40.5143
20	18	38.0255
24	18	64.7154
28	18	7.484613
32	18	0.000000
36	18	47.4497
-26.5	18.5	10.061
-22.5	18.5	16.7526
-18.5	18.5	0.000000
-14.5	18.5	12.2274
-10.5	18.5	24.1597
-6.500000	18.5	1.369702
-2.500000	18.5	4.802489
1.500000	18.5	39.9044
5.500000	18.5	6.186811
9.500000	18.5	9.159743
13.5	18.5	41.5326
17.5	18.5	66.71
21.5	18.5	73.1893
25.5	18.5	36.3144
29.5	18.5	2.354968
33.5	18.5	26.3165
37.5	18.5	0.000000
-25	19	2.407497
-21	19	3.810428
-17	19	5.356939
-13	19	20.3479
-9.000000	19	18.9713
-5.000000	19	5.074727
-1.000000	19	3.513855
3.000000	19	40.5737
7.000000	19	1.927615
11	19	36.3653
15	19	38.6213
19	19	49.8909
23	19	64.2247
27	19	0.000000
31	19	1.875613
35	19	10.2334
-27.5	19.5	25.8799
-23.5	19.5	0.556793
-19.5	19.5	7.668963
-15.5	19.5	3.978837
-11.5	19.5	8.246012
-7.500000	19.5	2.488754
-3.500000	19.5	54.1386
0.500000	19.5	41.1258
4.500000	19.5	3.527918
8.500000	19.5	2.162778
12.5	19.5	26.8105
16.5	19.5	63.4678
20.5	19.5	38.2841
24.5	19.5	5.433569
28.5	19.5	0.000000
32.5	19.5	32.825
36.5	19.5	3.955855
-26	20	2.395053
-22	20	17.9132
-18	20	2.880538
-14	20	2.767653
-10	20	30.8133
-6.000000	20	37.5146
-2.000000	20	28.4752
2.000000	20	30.9469
6.000000	20	3.395655
10	20	31.7104
14	20	36.0204
18	20	34.7375
22	20	55.4747
26	20	1.234639
30	20	2.135327
34	20	60.3999
38	20	5.227040