File: data/derived_data/raman/20170920_Gr-NH2_for_Radisurf/20170920 Gr-NH for Radisurf map 1/Dp FWHM.txt
#XList		#YList		#IList
-28	-22	0.639823
-24	-22	21.8581
-20	-22	15.6614
-16	-22	39.0541
-12	-22	17.7429
-8.000000	-22	17.349
-4.000000	-22	16.1835
0.000000	-22	16.0391
4.000000	-22	24.2937
8.000000	-22	16.4661
12	-22	17.2337
16	-22	15.1567
20	-22	23.3069
24	-22	0.784947
28	-22	6.039047
32	-22	31.2373
36	-22	0.639823
-26.5	-21.5	0.639823
-22.5	-21.5	2.178904
-18.5	-21.5	15.5413
-14.5	-21.5	17.4268
-10.5	-21.5	19.1238
-6.500000	-21.5	8.537383
-2.500000	-21.5	14.4463
1.500000	-21.5	17.945
5.500000	-21.5	21.3802
9.500000	-21.5	15.7173
13.5	-21.5	8.764360
17.5	-21.5	12.9
21.5	-21.5	20.7164
25.5	-21.5	16.8122
29.5	-21.5	17.2623
33.5	-21.5	39.8118
37.5	-21.5	3.484602
-25	-21	28.7573
-21	-21	21.0726
-17	-21	15.4449
-13	-21	17.018
-9.000000	-21	21.8791
-5.000000	-21	21.3071
-1.000000	-21	15.1191
3.000000	-21	0.639823
7.000000	-21	32.7832
11	-21	9.231379
15	-21	10.1269
19	-21	16.016
23	-21	17.3689
27	-21	25.6401
31	-21	33.2592
35	-21	0.639823
-27.5	-20.5	2.028730
-23.5	-20.5	181.758
-19.5	-20.5	17.7153
-15.5	-20.5	18.9323
-11.5	-20.5	1.251109
-7.500000	-20.5	22.0565
-3.500000	-20.5	17.8588
0.500000	-20.5	18.8715
4.500000	-20.5	24.6127
8.500000	-20.5	15.9805
12.5	-20.5	19.8353
16.5	-20.5	17.5871
20.5	-20.5	15.4979
24.5	-20.5	17.5211
28.5	-20.5	26.7622
32.5	-20.5	13.7795
36.5	-20.5	8.209158
-26	-20	0.740760
-22	-20	15.0677
-18	-20	18.211
-14	-20	17.0443
-10	-20	25.1
-6.000000	-20	39.4821
-2.000000	-20	11.4796
2.000000	-20	3.468544
6.000000	-20	9.653944
10	-20	16.9131
14	-20	12.4217
18	-20	17.2988
22	-20	14.6224
26	-20	2.796392
30	-20	69.2099
34	-20	0.639823
38	-20	17.3365
-24.5	-19.5	20.8957
-20.5	-19.5	17.1245
-16.5	-19.5	36.5765
-12.5	-19.5	0.639823
-8.500000	-19.5	16.2469
-4.500000	-19.5	28.3707
-0.500000	-19.5	0.639823
3.500000	-19.5	22.9411
7.500000	-19.5	13.4728
11.5	-19.5	9.901144
15.5	-19.5	14.9276
19.5	-19.5	17.4532
23.5	-19.5	22.086
27.5	-19.5	41.4708
31.5	-19.5	26.2817
35.5	-19.5	14.2071
-27	-19	0.639823
-23	-19	23.3023
-19	-19	18.0262
-15	-19	21.4482
-11	-19	0.639823
-7.000000	-19	25.62
-3.000000	-19	14.0264
1.000000	-19	4.282403
5.000000	-19	47.2676
9.000000	-19	10.9773
13	-19	10.4512
17	-19	15.5613
21	-19	6.189959
25	-19	15.3321
29	-19	29.7129
33	-19	0.639823
37	-19	0.639823
-25.5	-18.5	5.668457
-21.5	-18.5	22.1771
-17.5	-18.5	79.8377
-13.5	-18.5	1.670124
-9.500000	-18.5	4.969321
-5.500000	-18.5	32.3523
-1.500000	-18.5	18.9267
2.500000	-18.5	29.8349
6.500000	-18.5	14.6362
10.5	-18.5	10.2741
14.5	-18.5	15.2988
18.5	-18.5	17.283
22.5	-18.5	15.5722
26.5	-18.5	22.0463
30.5	-18.5	19.9034
34.5	-18.5	2.275156
-28	-18	4.055911
-24	-18	2.124213
-20	-18	1.493255
-16	-18	22.4453
-12	-18	6.341537
-8.000000	-18	7.961511
-4.000000	-18	20.0011
0.000000	-18	22.8079
4.000000	-18	22.0482
8.000000	-18	19.4959
12	-18	8.602423
16	-18	12.7478
20	-18	18.2359
24	-18	15.0922
28	-18	19.1521
32	-18	1.156640
36	-18	0.639823
-26.5	-17.5	0.639823
-22.5	-17.5	10.0261
-18.5	-17.5	30.909
-14.5	-17.5	17.946
-10.5	-17.5	0.639823
-6.500000	-17.5	12.092
-2.500000	-17.5	23.0083
1.500000	-17.5	22.5366
5.500000	-17.5	18.7355
9.500000	-17.5	21.3727
13.5	-17.5	11.9288
17.5	-17.5	21.3636
21.5	-17.5	17.2035
25.5	-17.5	19.4148
29.5	-17.5	17.8904
33.5	-17.5	0.941210
37.5	-17.5	12.4463
-25	-17	0.639823
-21	-17	3.592899
-17	-17	32.5222
-13	-17	29.4819
-9.000000	-17	0.639823
-5.000000	-17	16.7783
-1.000000	-17	27.2754
3.000000	-17	32.7734
7.000000	-17	17.3546
11	-17	20.226
15	-17	15.5065
19	-17	19.5076
23	-17	14.3337
27	-17	14.6649
31	-17	22.4171
35	-17	0.639823
-27.5	-16.5	30.4058
-23.5	-16.5	39.3926
-19.5	-16.5	17.7475
-15.5	-16.5	25.1371
-11.5	-16.5	25.6154
-7.500000	-16.5	20.3681
-3.500000	-16.5	16.6435
0.500000	-16.5	30.8074
4.500000	-16.5	22.0992
8.500000	-16.5	14.2946
12.5	-16.5	12.5957
16.5	-16.5	14.9336
20.5	-16.5	23.4402
24.5	-16.5	13.5012
28.5	-16.5	15.4009
32.5	-16.5	0.639823
36.5	-16.5	0.664668
-26	-16	7.084682
-22	-16	0.639823
-18	-16	10.9764
-14	-16	18.1745
-10	-16	22.8008
-6.000000	-16	21.6787
-2.000000	-16	26.2209
2.000000	-16	16.2716
6.000000	-16	21.6948
10	-16	19.1394
14	-16	13.5481
18	-16	13.9246
22	-16	17.4421
26	-16	14.0181
30	-16	20.2448
34	-16	162.982
38	-16	136.523
-24.5	-15.5	0.639823
-20.5	-15.5	14.7768
-16.5	-15.5	29.7998
-12.5	-15.5	25.7749
-8.500000	-15.5	20.6288
-4.500000	-15.5	17.191
-0.500000	-15.5	66.1036
3.500000	-15.5	16.7047
7.500000	-15.5	18.9075
11.5	-15.5	8.720210
15.5	-15.5	13.2948
19.5	-15.5	16.0083
23.5	-15.5	4.256557
27.5	-15.5	26.4908
31.5	-15.5	23.2859
35.5	-15.5	24.1518
-27	-15	25.7296
-23	-15	0.902285
-19	-15	21.8296
-15	-15	19.8004
-11	-15	31.9559
-7.000000	-15	27.0859
-3.000000	-15	16.9851
1.000000	-15	25.6277
5.000000	-15	14.6531
9.000000	-15	22.712
13	-15	12.2263
17	-15	10.3
21	-15	15.3987
25	-15	11.502
29	-15	24.1861
33	-15	59.2283
37	-15	18.4089
-25.5	-14.5	9.143678
-21.5	-14.5	15.1265
-17.5	-14.5	27.7553
-13.5	-14.5	92.381
-9.500000	-14.5	16.0538
-5.500000	-14.5	10.8135
-1.500000	-14.5	20.9046
2.500000	-14.5	14.7971
6.500000	-14.5	15.0964
10.5	-14.5	14.5339
14.5	-14.5	15.1526
18.5	-14.5	10.9257
22.5	-14.5	50.2348
26.5	-14.5	16.144
30.5	-14.5	29.5007
34.5	-14.5	59.393
-28	-14	0.639823
-24	-14	0.639823
-20	-14	2.793481
-16	-14	21.016
-12	-14	22.4667
-8.000000	-14	15.7494
-4.000000	-14	25.8154
0.000000	-14	27.7826
4.000000	-14	18.8679
8.000000	-14	17.7153
12	-14	19.8101
16	-14	15.1384
20	-14	0.639823
24	-14	13.0069
28	-14	27.2865
32	-14	19.9303
36	-14	8.380674
-26.5	-13.5	11.6909
-22.5	-13.5	0.639823
-18.5	-13.5	73.8461
-14.5	-13.5	18.1387
-10.5	-13.5	1.605833
-6.500000	-13.5	29.4393
-2.500000	-13.5	30.0445
1.500000	-13.5	16.2846
5.500000	-13.5	15.0418
9.500000	-13.5	15.3311
13.5	-13.5	20.0373
17.5	-13.5	15.7557
21.5	-13.5	0.639823
25.5	-13.5	37.8361
29.5	-13.5	69.5209
33.5	-13.5	48.1145
37.5	-13.5	30.5268
-25	-13	3.380550
-21	-13	33.4709
-17	-13	48.0953
-13	-13	19.3417
-9.000000	-13	29.6795
-5.000000	-13	21.7445
-1.000000	-13	12.5259
3.000000	-13	16.6725
7.000000	-13	18.3228
11	-13	10.9259
15	-13	17.5281
19	-13	9.503380
23	-13	16.7207
27	-13	28.4497
31	-13	0.661900
35	-13	54.8458
-27.5	-12.5	15.0831
-23.5	-12.5	0.798632
-19.5	-12.5	26.9937
-15.5	-12.5	18.3685
-11.5	-12.5	16.5298
-7.500000	-12.5	22.0118
-3.500000	-12.5	44.5859
0.500000	-12.5	19.785
4.500000	-12.5	22.0948
8.500000	-12.5	15.3917
12.5	-12.5	2.464325
16.5	-12.5	15.5992
20.5	-12.5	17.1043
24.5	-12.5	26.5031
28.5	-12.5	31.8443
32.5	-12.5	30.2612
36.5	-12.5	25.235
-26	-12	18.5076
-22	-12	0.941257
-18	-12	31.2642
-14	-12	28.1168
-10	-12	17.7399
-6.000000	-12	26.7744
-2.000000	-12	23.823
2.000000	-12	16.5601
6.000000	-12	17.5491
10	-12	7.231197
14	-12	22.2674
18	-12	19.0375
22	-12	2.361773
26	-12	12.7464
30	-12	14.1649
34	-12	31.4779
38	-12	79.0902
-24.5	-11.5	0.994869
-20.5	-11.5	0.639823
-16.5	-11.5	27.9538
-12.5	-11.5	13.3379
-8.500000	-11.5	16.116
-4.500000	-11.5	19.9249
-0.500000	-11.5	15.7196
3.500000	-11.5	13.445
7.500000	-11.5	16.4743
11.5	-11.5	2.564891
15.5	-11.5	19.2654
19.5	-11.5	13.3497
23.5	-11.5	20.8836
27.5	-11.5	8.796398
31.5	-11.5	0.639823
35.5	-11.5	35.9126
-27	-11	1.976236
-23	-11	0.639823
-19	-11	27.9095
-15	-11	66.5047
-11	-11	22.5439
-7.000000	-11	19.4711
-3.000000	-11	27.2699
1.000000	-11	15.2788
5.000000	-11	17.1016
9.000000	-11	29.976
13	-11	18.2217
17	-11	20.2743
21	-11	18.5021
25	-11	15.406
29	-11	3.954859
33	-11	0.639862
37	-11	28.6154
-25.5	-10.5	28.747
-21.5	-10.5	0.639823
-17.5	-10.5	18.4862
-13.5	-10.5	15.9979
-9.500000	-10.5	29.0669
-5.500000	-10.5	15.4684
-1.500000	-10.5	18.6583
2.500000	-10.5	13.5612
6.500000	-10.5	20.2271
10.5	-10.5	28.3879
14.5	-10.5	4.109682
18.5	-10.5	10.8369
22.5	-10.5	50.138
26.5	-10.5	25.7425
30.5	-10.5	14.5877
34.5	-10.5	4.096115
-28	-10	13.3599
-24	-10	29.5491
-20	-10	29.4177
-16	-10	23.6002
-12	-10	21.2159
-8.000000	-10	17.749
-4.000000	-10	22.2425
0.000000	-10	17.2176
4.000000	-10	17.9215
8.000000	-10	23.3225
12	-10	12.3701
16	-10	2.960896
20	-10	49.5136
24	-10	10.2331
28	-10	0.639823
32	-10	5.879725
36	-10	0.639823
-26.5	-9.500000	0.639823
-22.5	-9.500000	40.919
-18.5	-9.500000	23.3385
-14.5	-9.500000	19.4006
-10.5	-9.500000	50.7148
-6.500000	-9.500000	14.8073
-2.500000	-9.500000	19.0768
1.500000	-9.500000	15.6671
5.500000	-9.500000	23.8553
9.500000	-9.500000	24.887
13.5	-9.500000	15.2223
17.5	-9.500000	17.0908
21.5	-9.500000	15.0654
25.5	-9.500000	10.8661
29.5	-9.500000	0.639823
33.5	-9.500000	19.8922
37.5	-9.500000	23.107
-25	-9.000000	21.9043
-21	-9.000000	19.6889
-17	-9.000000	18.3048
-13	-9.000000	27.8875
-9.000000	-9.000000	23.919
-5.000000	-9.000000	13.5526
-1.000000	-9.000000	27.0457
3.000000	-9.000000	16.109
7.000000	-9.000000	25.5277
11	-9.000000	24.4301
15	-9.000000	5.521780
19	-9.000000	21.4034
23	-9.000000	33.1611
27	-9.000000	17.125
31	-9.000000	4.843374
35	-9.000000	14.756
-27.5	-8.500000	21.2391
-23.5	-8.500000	27.111
-19.5	-8.500000	17.1795
-15.5	-8.500000	10.4857
-11.5	-8.500000	3.516959
-7.500000	-8.500000	15.5167
-3.500000	-8.500000	18.6446
0.500000	-8.500000	16.6984
4.500000	-8.500000	23.2331
8.500000	-8.500000	24.1183
12.5	-8.500000	25.3379
16.5	-8.500000	18.2754
20.5	-8.500000	29.9505
24.5	-8.500000	15.6298
28.5	-8.500000	24.667
32.5	-8.500000	19.421
36.5	-8.500000	10.3431
-26	-8.000000	6.249773
-22	-8.000000	23.281
-18	-8.000000	106.542
-14	-8.000000	22.9028
-10	-8.000000	15.897
-6.000000	-8.000000	13.3963
-2.000000	-8.000000	21.6276
2.000000	-8.000000	18.7868
6.000000	-8.000000	22.2318
10	-8.000000	26.9368
14	-8.000000	16.7372
18	-8.000000	18.3205
22	-8.000000	17.7808
26	-8.000000	13.3201
30	-8.000000	25.7218
34	-8.000000	20.1012
38	-8.000000	4.075387
-24.5	-7.500000	30.7104
-20.5	-7.500000	31.9607
-16.5	-7.500000	22.541
-12.5	-7.500000	28.0734
-8.500000	-7.500000	17.3132
-4.500000	-7.500000	15.3391
-0.500000	-7.500000	16.6749
3.500000	-7.500000	24.7952
7.500000	-7.500000	28.1277
11.5	-7.500000	16.2256
15.5	-7.500000	20.3802
19.5	-7.500000	27.2137
23.5	-7.500000	23.0172
27.5	-7.500000	35.1342
31.5	-7.500000	15.1498
35.5	-7.500000	17.3774
-27	-7.000000	0.639823
-23	-7.000000	27.1439
-19	-7.000000	34.0639
-15	-7.000000	31.4317
-11	-7.000000	27.2187
-7.000000	-7.000000	21.5913
-3.000000	-7.000000	18.1101
1.000000	-7.000000	18.6485
5.000000	-7.000000	32.1087
9.000000	-7.000000	16.9245
13	-7.000000	27.3287
17	-7.000000	31.8765
21	-7.000000	11.1368
25	-7.000000	21.0966
29	-7.000000	18.0337
33	-7.000000	21.373
37	-7.000000	21.5845
-25.5	-6.500000	71.1437
-21.5	-6.500000	19.4976
-17.5	-6.500000	32.9051
-13.5	-6.500000	26.3976
-9.500000	-6.500000	17.8895
-5.500000	-6.500000	15.3604
-1.500000	-6.500000	14.6761
2.500000	-6.500000	16.9794
6.500000	-6.500000	19.0245
10.5	-6.500000	17.1051
14.5	-6.500000	21.2063
18.5	-6.500000	22.226
22.5	-6.500000	16.0553
26.5	-6.500000	55.3761
30.5	-6.500000	9.987993
34.5	-6.500000	29.5689
-28	-6.000000	19.9819
-24	-6.000000	31.2196
-20	-6.000000	106.996
-16	-6.000000	25.9386
-12	-6.000000	18.0272
-8.000000	-6.000000	18.5625
-4.000000	-6.000000	24.523
0.000000	-6.000000	26.378
4.000000	-6.000000	21.7316
8.000000	-6.000000	18.3928
12	-6.000000	35.9911
16	-6.000000	17.2753
20	-6.000000	15.9433
24	-6.000000	19.8332
28	-6.000000	14.7854
32	-6.000000	28.189
36	-6.000000	16.0622
-26.5	-5.500000	0.639823
-22.5	-5.500000	25.4182
-18.5	-5.500000	17.3143
-14.5	-5.500000	18.8447
-10.5	-5.500000	35.1044
-6.500000	-5.500000	14.5609
-2.500000	-5.500000	11.0992
1.500000	-5.500000	19.1684
5.500000	-5.500000	27.069
9.500000	-5.500000	12.8871
13.5	-5.500000	14.08
17.5	-5.500000	23.5336
21.5	-5.500000	23.5282
25.5	-5.500000	19.128
29.5	-5.500000	87.2683
33.5	-5.500000	13.3845
37.5	-5.500000	18.1431
-25	-5.000000	0.639823
-21	-5.000000	22.0412
-17	-5.000000	18.0159
-13	-5.000000	24.1132
-9.000000	-5.000000	15.2275
-5.000000	-5.000000	0.639823
-1.000000	-5.000000	17.8006
3.000000	-5.000000	19.964
7.000000	-5.000000	15.9736
11	-5.000000	20.8745
15	-5.000000	26.2559
19	-5.000000	1.594349
23	-5.000000	15.49
27	-5.000000	12.5779
31	-5.000000	150.935
35	-5.000000	16.6819
-27.5	-4.500000	20.7944
-23.5	-4.500000	30.7126
-19.5	-4.500000	14.4605
-15.5	-4.500000	13.1711
-11.5	-4.500000	10.5988
-7.500000	-4.500000	1.676591
-3.500000	-4.500000	0.732847
0.500000	-4.500000	21.0491
4.500000	-4.500000	13.2797
8.500000	-4.500000	27.6555
12.5	-4.500000	18.0271
16.5	-4.500000	23.3661
20.5	-4.500000	23.6417
24.5	-4.500000	14.0832
28.5	-4.500000	17.3108
32.5	-4.500000	13.5212
36.5	-4.500000	17.962
-26	-4.000000	4.565084
-22	-4.000000	29.4252
-18	-4.000000	16.3327
-14	-4.000000	299.495
-10	-4.000000	13.9985
-6.000000	-4.000000	76.6392
-2.000000	-4.000000	22.1607
2.000000	-4.000000	22.808
6.000000	-4.000000	1.756856
10	-4.000000	31.1622
14	-4.000000	14.841
18	-4.000000	13.9273
22	-4.000000	14.0728
26	-4.000000	3.936319
30	-4.000000	34.4474
34	-4.000000	17.5774
38	-4.000000	20.4476
-24.5	-3.500000	0.639823
-20.5	-3.500000	18.4794
-16.5	-3.500000	9.852816
-12.5	-3.500000	20.3283
-8.500000	-3.500000	1.323816
-4.500000	-3.500000	0.639823
-0.500000	-3.500000	16.8704
3.500000	-3.500000	14.3746
7.500000	-3.500000	22.3122
11.5	-3.500000	13.036
15.5	-3.500000	10.5644
19.5	-3.500000	13.6448
23.5	-3.500000	19.2543
27.5	-3.500000	17.8541
31.5	-3.500000	0.639823
35.5	-3.500000	15.4924
-27	-3.000000	8.675836
-23	-3.000000	10.2997
-19	-3.000000	22.5415
-15	-3.000000	11.08
-11	-3.000000	4.001712
-7.000000	-3.000000	0.639823
-3.000000	-3.000000	6.047741
1.000000	-3.000000	20.5837
5.000000	-3.000000	16.7026
9.000000	-3.000000	13.9294
13	-3.000000	14.3177
17	-3.000000	13.1936
21	-3.000000	12.066
25	-3.000000	14.0785
29	-3.000000	17.8
33	-3.000000	0.639823
37	-3.000000	24.6072
-25.5	-2.500000	0.639823
-21.5	-2.500000	20.4673
-17.5	-2.500000	15.006
-13.5	-2.500000	14.8275
-9.500000	-2.500000	17.2357
-5.500000	-2.500000	0.639823
-1.500000	-2.500000	26.9638
2.500000	-2.500000	20.7071
6.500000	-2.500000	17.5736
10.5	-2.500000	22.1597
14.5	-2.500000	16.3047
18.5	-2.500000	7.834360
22.5	-2.500000	14.8414
26.5	-2.500000	7.136872
30.5	-2.500000	30.2289
34.5	-2.500000	18.305
-28	-2.000000	23.9201
-24	-2.000000	4.348971
-20	-2.000000	3.076659
-16	-2.000000	17.7311
-12	-2.000000	29.2238
-8.000000	-2.000000	11.0859
-4.000000	-2.000000	0.939778
0.000000	-2.000000	14.4807
4.000000	-2.000000	0.639823
8.000000	-2.000000	2.908249
12	-2.000000	19.9823
16	-2.000000	20.7149
20	-2.000000	14.9582
24	-2.000000	15.8339
28	-2.000000	10.5985
32	-2.000000	8.543446
36	-2.000000	14.2282
-26.5	-1.500000	0.639823
-22.5	-1.500000	0.639823
-18.5	-1.500000	16.3334
-14.5	-1.500000	20.9306
-10.5	-1.500000	21.3612
-6.500000	-1.500000	0.639823
-2.500000	-1.500000	16.5019
1.500000	-1.500000	18.2708
5.500000	-1.500000	24.2134
9.500000	-1.500000	36.862
13.5	-1.500000	0.639823
17.5	-1.500000	8.857886
21.5	-1.500000	9.213287
25.5	-1.500000	13.4607
29.5	-1.500000	14.9411
33.5	-1.500000	4.939065
37.5	-1.500000	21.1368
-25	-1.000000	0.639823
-21	-1.000000	4.771238
-17	-1.000000	16.1528
-13	-1.000000	39.4041
-9.000000	-1.000000	20.6218
-5.000000	-1.000000	0.639823
-1.000000	-1.000000	20.0427
3.000000	-1.000000	0.639823
7.000000	-1.000000	22.8923
11	-1.000000	21.7189
15	-1.000000	10.7144
19	-1.000000	17.1201
23	-1.000000	15.5146
27	-1.000000	10.4867
31	-1.000000	17.418
35	-1.000000	20.6194
-27.5	-0.500000	12.773
-23.5	-0.500000	0.639823
-19.5	-0.500000	16.6804
-15.5	-0.500000	15.6973
-11.5	-0.500000	14.9509
-7.500000	-0.500000	0.670177
-3.500000	-0.500000	8.886418
0.500000	-0.500000	23.6865
4.500000	-0.500000	5.317761
8.500000	-0.500000	38.2577
12.5	-0.500000	12.3332
16.5	-0.500000	14.34
20.5	-0.500000	16.1174
24.5	-0.500000	7.006036
28.5	-0.500000	14.5381
32.5	-0.500000	3.709120
36.5	-0.500000	15.6485
-26	0.000000	24.2505
-22	0.000000	15.0825
-18	0.000000	11.6972
-14	0.000000	17.4651
-10	0.000000	25.8097
-6.000000	0.000000	0.673227
-2.000000	0.000000	2.013366
2.000000	0.000000	1.246630
6.000000	0.000000	20.7758
10	0.000000	18.9928
14	0.000000	8.719417
18	0.000000	17.6853
22	0.000000	14.1746
26	0.000000	15.7543
30	0.000000	19.1296
34	0.000000	0.639823
38	0.000000	18.0331
-24.5	0.500000	17.4913
-20.5	0.500000	0.639823
-16.5	0.500000	11.5762
-12.5	0.500000	18.0234
-8.500000	0.500000	22.2172
-4.500000	0.500000	0.639823
-0.500000	0.500000	18.3672
3.500000	0.500000	13.5563
7.500000	0.500000	17.6369
11.5	0.500000	9.967225
15.5	0.500000	16.5881
19.5	0.500000	15.7653
23.5	0.500000	11.0895
27.5	0.500000	13.044
31.5	0.500000	10.2361
35.5	0.500000	39.3659
-27	1.000000	28.5543
-23	1.000000	21.9496
-19	1.000000	18.14
-15	1.000000	13.1901
-11	1.000000	15.9012
-7.000000	1.000000	2.595295
-3.000000	1.000000	30.6487
1.000000	1.000000	15.237
5.000000	1.000000	19.5955
9.000000	1.000000	14.0314
13	1.000000	16.5818
17	1.000000	24.5955
21	1.000000	11.7728
25	1.000000	17.4543
29	1.000000	23.7687
33	1.000000	0.639823
37	1.000000	7.013680
-25.5	1.500000	23.9481
-21.5	1.500000	31.2579
-17.5	1.500000	16.688
-13.5	1.500000	17.0305
-9.500000	1.500000	13.3054
-5.500000	1.500000	0.639823
-1.500000	1.500000	26.6155
2.500000	1.500000	18.358
6.500000	1.500000	20.9961
10.5	1.500000	16.6671
14.5	1.500000	11.9635
18.5	1.500000	8.285035
22.5	1.500000	11.6286
26.5	1.500000	18.1633
30.5	1.500000	19.3475
34.5	1.500000	0.639823
-28	2.000000	18.3418
-24	2.000000	26.7965
-20	2.000000	23.1377
-16	2.000000	15.2928
-12	2.000000	23.3872
-8.000000	2.000000	14.9921
-4.000000	2.000000	19.3755
0.000000	2.000000	19.6874
4.000000	2.000000	15.2404
8.000000	2.000000	18.0425
12	2.000000	15.1315
16	2.000000	1.680642
20	2.000000	12.1605
24	2.000000	9.600803
28	2.000000	9.569978
32	2.000000	11.8683
36	2.000000	9.494359
-26.5	2.500000	29.467
-22.5	2.500000	27.8865
-18.5	2.500000	20.5855
-14.5	2.500000	13.5921
-10.5	2.500000	11.3911
-6.500000	2.500000	23.4443
-2.500000	2.500000	8.120625
1.500000	2.500000	19.587
5.500000	2.500000	3.437112
9.500000	2.500000	17.6828
13.5	2.500000	11.6612
17.5	2.500000	16.8518
21.5	2.500000	10.4974
25.5	2.500000	8.231744
29.5	2.500000	12.7246
33.5	2.500000	0.639823
37.5	2.500000	20.8457
-25	3.000000	38.599
-21	3.000000	20.8244
-17	3.000000	12.1883
-13	3.000000	23.9484
-9.000000	3.000000	14.4972
-5.000000	3.000000	62.9012
-1.000000	3.000000	42.9026
3.000000	3.000000	20.5261
7.000000	3.000000	17.0991
11	3.000000	14.4491
15	3.000000	18.4604
19	3.000000	26.2534
23	3.000000	21.8776
27	3.000000	20.8775
31	3.000000	13.0693
35	3.000000	19.2811
-27.5	3.500000	23.695
-23.5	3.500000	22.2989
-19.5	3.500000	21.1722
-15.5	3.500000	13.4098
-11.5	3.500000	11.0737
-7.500000	3.500000	25.1116
-3.500000	3.500000	23.0124
0.500000	3.500000	21.5752
4.500000	3.500000	16.5516
8.500000	3.500000	23.0191
12.5	3.500000	24.0674
16.5	3.500000	2.075658
20.5	3.500000	15.5216
24.5	3.500000	9.753679
28.5	3.500000	11.3357
32.5	3.500000	0.639823
36.5	3.500000	13.7211
-26	4.000000	23.0724
-22	4.000000	17.4306
-18	4.000000	19.7543
-14	4.000000	17.9723
-10	4.000000	13.7707
-6.000000	4.000000	20.6487
-2.000000	4.000000	20.9125
2.000000	4.000000	22.9402
6.000000	4.000000	15.7035
10	4.000000	13.6564
14	4.000000	18.5779
18	4.000000	10.0848
22	4.000000	23.9709
26	4.000000	15.4187
30	4.000000	13.6506
34	4.000000	0.639823
38	4.000000	20.1536
-24.5	4.500000	13.8148
-20.5	4.500000	61.3712
-16.5	4.500000	16.1933
-12.5	4.500000	16.4863
-8.500000	4.500000	15.6969
-4.500000	4.500000	20.833
-0.500000	4.500000	20.7535
3.500000	4.500000	11.7936
7.500000	4.500000	23.3634
11.5	4.500000	22.1649
15.5	4.500000	26.1608
19.5	4.500000	18.4837
23.5	4.500000	5.087467
27.5	4.500000	14.484
31.5	4.500000	8.114910
35.5	4.500000	34.209
-27	5.000000	20.0311
-23	5.000000	20.2133
-19	5.000000	20.2497
-15	5.000000	14.1793
-11	5.000000	16.9922
-7.000000	5.000000	18.6371
-3.000000	5.000000	22.0553
1.000000	5.000000	15.4312
5.000000	5.000000	21.8648
9.000000	5.000000	24.6339
13	5.000000	20.9488
17	5.000000	117.169
21	5.000000	12.9346
25	5.000000	12.2755
29	5.000000	10.4267
33	5.000000	16.3214
37	5.000000	16.4397
-25.5	5.500000	19.4786
-21.5	5.500000	19.0082
-17.5	5.500000	18.3231
-13.5	5.500000	23.888
-9.500000	5.500000	24.2875
-5.500000	5.500000	33.2452
-1.500000	5.500000	28.8288
2.500000	5.500000	14.6547
6.500000	5.500000	28.5049
10.5	5.500000	18.1003
14.5	5.500000	21.8084
18.5	5.500000	13.7423
22.5	5.500000	13.875
26.5	5.500000	10.418
30.5	5.500000	12.4877
34.5	5.500000	19.2183
-28	6.000000	14.8118
-24	6.000000	15.3301
-20	6.000000	26.3449
-16	6.000000	21.224
-12	6.000000	13.4255
-8.000000	6.000000	20.7737
-4.000000	6.000000	25.6805
0.000000	6.000000	18.0788
4.000000	6.000000	14.8021
8.000000	6.000000	28.1185
12	6.000000	19.4673
16	6.000000	15.6922
20	6.000000	13.8931
24	6.000000	13.6328
28	6.000000	10.6229
32	6.000000	22.9731
36	6.000000	15.9048
-26.5	6.500000	26.1635
-22.5	6.500000	15.9844
-18.5	6.500000	18.0197
-14.5	6.500000	26.3707
-10.5	6.500000	16.9537
-6.500000	6.500000	17.1857
-2.500000	6.500000	26.1235
1.500000	6.500000	12.6417
5.500000	6.500000	11.336
9.500000	6.500000	29.5851
13.5	6.500000	18.3675
17.5	6.500000	15.293
21.5	6.500000	10.5541
25.5	6.500000	10.8578
29.5	6.500000	7.779358
33.5	6.500000	19.7061
37.5	6.500000	17.909
-25	7.000000	12.6337
-21	7.000000	23.2797
-17	7.000000	19.1966
-13	7.000000	18.1852
-9.000000	7.000000	32.3975
-5.000000	7.000000	17.4626
-1.000000	7.000000	21.8677
3.000000	7.000000	14.7415
7.000000	7.000000	13.2615
11	7.000000	27.0878
15	7.000000	22.7844
19	7.000000	13.2362
23	7.000000	12.2292
27	7.000000	9.918142
31	7.000000	13.7932
35	7.000000	10.6188
-27.5	7.500000	9.540356
-23.5	7.500000	18.8893
-19.5	7.500000	32.007
-15.5	7.500000	19.0956
-11.5	7.500000	22.0016
-7.500000	7.500000	27.3433
-3.500000	7.500000	21.8421
0.500000	7.500000	16.747
4.500000	7.500000	20.5668
8.500000	7.500000	23.134
12.5	7.500000	20.644
16.5	7.500000	13.7477
20.5	7.500000	8.791524
24.5	7.500000	26.8445
28.5	7.500000	1.414051
32.5	7.500000	19.508
36.5	7.500000	15.1538
-26	8.000000	24.4332
-22	8.000000	31.0236
-18	8.000000	18.8968
-14	8.000000	26.818
-10	8.000000	20.3521
-6.000000	8.000000	20.4704
-2.000000	8.000000	21.0811
2.000000	8.000000	24.5839
6.000000	8.000000	14.922
10	8.000000	24.3455
14	8.000000	14.1517
18	8.000000	6.934999
22	8.000000	11.3478
26	8.000000	16.3652
30	8.000000	12.4142
34	8.000000	17.136
38	8.000000	16.2882
-24.5	8.500000	1.180705
-20.5	8.500000	24.7183
-16.5	8.500000	18.3087
-12.5	8.500000	19.6573
-8.500000	8.500000	19.8901
-4.500000	8.500000	19.6587
-0.500000	8.500000	22.1715
3.500000	8.500000	29.5521
7.500000	8.500000	19.1342
11.5	8.500000	22.3285
15.5	8.500000	17.4742
19.5	8.500000	16.6858
23.5	8.500000	18.1803
27.5	8.500000	13.2366
31.5	8.500000	16.7607
35.5	8.500000	18.6533
-27	9.000000	3.260778
-23	9.000000	23.3817
-19	9.000000	26.981
-15	9.000000	27.5719
-11	9.000000	23.1282
-7.000000	9.000000	25.2592
-3.000000	9.000000	19.5451
1.000000	9.000000	19.7234
5.000000	9.000000	15.3526
9.000000	9.000000	17.1312
13	9.000000	18.0958
17	9.000000	12.0461
21	9.000000	13.4484
25	9.000000	25.3006
29	9.000000	13.7907
33	9.000000	24.0708
37	9.000000	21.0504
-25.5	9.500000	0.645666
-21.5	9.500000	22.164
-17.5	9.500000	19.5398
-13.5	9.500000	22.3709
-9.500000	9.500000	36.0438
-5.500000	9.500000	22.3959
-1.500000	9.500000	14.524
2.500000	9.500000	13.6946
6.500000	9.500000	17.3109
10.5	9.500000	14.577
14.5	9.500000	17.9946
18.5	9.500000	12.809
22.5	9.500000	14.8089
26.5	9.500000	23.1869
30.5	9.500000	9.552502
34.5	9.500000	13.7771
-28	10	11.2263
-24	10	35.2359
-20	10	16.0747
-16	10	18.2743
-12	10	20.9792
-8.000000	10	21.3529
-4.000000	10	18.6505
0.000000	10	0.639823
4.000000	10	16.1828
8.000000	10	15.2084
12	10	18.5727
16	10	13.7589
20	10	15.7097
24	10	9.453794
28	10	11.7641
32	10	17.8356
36	10	17.4129
-26.5	10.5	0.639823
-22.5	10.5	22.9075
-18.5	10.5	18.3453
-14.5	10.5	18.9493
-10.5	10.5	27.147
-6.500000	10.5	34.6359
-2.500000	10.5	22.7381
1.500000	10.5	13.847
5.500000	10.5	20.4965
9.500000	10.5	11.8331
13.5	10.5	15.9451
17.5	10.5	9.579116
21.5	10.5	18.3958
25.5	10.5	15.2183
29.5	10.5	13.5163
33.5	10.5	14.3182
37.5	10.5	18.9737
-25	11	16.8891
-21	11	19.0495
-17	11	24.0089
-13	11	18.1463
-9.000000	11	13.7707
-5.000000	11	35.9666
-1.000000	11	20.0732
3.000000	11	22.8429
7.000000	11	15.0167
11	11	17.2107
15	11	13.9521
19	11	13.4685
23	11	12.1473
27	11	13.312
31	11	10.6833
35	11	17.7877
-27.5	11.5	19.1801
-23.5	11.5	1.735874
-19.5	11.5	8.310616
-15.5	11.5	22.7312
-11.5	11.5	31.0069
-7.500000	11.5	16.0569
-3.500000	11.5	24.3334
0.500000	11.5	17.0586
4.500000	11.5	0.639823
8.500000	11.5	22.0636
12.5	11.5	20.8914
16.5	11.5	17.602
20.5	11.5	16.271
24.5	11.5	13.019
28.5	11.5	15.3657
32.5	11.5	13.7885
36.5	11.5	12.9374
-26	12	12.5279
-22	12	22.866
-18	12	16.4354
-14	12	9.499496
-10	12	23.0588
-6.000000	12	22.286
-2.000000	12	27.2058
2.000000	12	14.9827
6.000000	12	0.639823
10	12	22.4899
14	12	23.5737
18	12	15.3983
22	12	15.9199
26	12	19.9919
30	12	17.9975
34	12	19.3339
38	12	19.583
-24.5	12.5	5.204438
-20.5	12.5	14.0998
-16.5	12.5	7.772438
-12.5	12.5	23.8991
-8.500000	12.5	16.5089
-4.500000	12.5	19.7357
-0.500000	12.5	21.0499
3.500000	12.5	0.639823
7.500000	12.5	29.2767
11.5	12.5	20.4877
15.5	12.5	16.1681
19.5	12.5	16.1261
23.5	12.5	17.271
27.5	12.5	17.9956
31.5	12.5	17.0858
35.5	12.5	19.664
-27	13	23.0587
-23	13	44.0481
-19	13	0.666334
-15	13	0.639823
-11	13	18.2144
-7.000000	13	16.5686
-3.000000	13	20.9029
1.000000	13	16.4044
5.000000	13	0.639823
9.000000	13	12.1324
13	13	29.9796
17	13	15.9929
21	13	20.1422
25	13	12.468
29	13	17.2765
33	13	15.2907
37	13	22.2658
-25.5	13.5	0.639823
-21.5	13.5	3.008914
-17.5	13.5	1.516715
-13.5	13.5	2.263616
-9.500000	13.5	17.6899
-5.500000	13.5	20.704
-1.500000	13.5	12.524
2.500000	13.5	1.917597
6.500000	13.5	4.428530
10.5	13.5	65.7112
14.5	13.5	17.1039
18.5	13.5	14.5474
22.5	13.5	27.5524
26.5	13.5	15.347
30.5	13.5	29.9029
34.5	13.5	19.5938
-28	14	0.639823
-24	14	0.639823
-20	14	0.639823
-16	14	0.639823
-12	14	14.3625
-8.000000	14	16.1761
-4.000000	14	32.9288
0.000000	14	22.4441
4.000000	14	184.479
8.000000	14	0.639823
12	14	20.7185
16	14	32.2028
20	14	17.4043
24	14	14.4834
28	14	19.7968
32	14	19.1417
36	14	13.5431
-26.5	14.5	1.784082
-22.5	14.5	393.687
-18.5	14.5	0.682808
-14.5	14.5	1.165305
-10.5	14.5	21.2252
-6.500000	14.5	21.2475
-2.500000	14.5	18.7798
1.500000	14.5	4.906544
5.500000	14.5	0.869783
9.500000	14.5	21.0985
13.5	14.5	17.4553
17.5	14.5	15.5305
21.5	14.5	20.7462
25.5	14.5	16.3577
29.5	14.5	17.38
33.5	14.5	17.5027
37.5	14.5	28.3145
-25	15	0.639823
-21	15	0.639823
-17	15	4.962505
-13	15	0.639823
-9.000000	15	22.0523
-5.000000	15	0.639823
-1.000000	15	19.0857
3.000000	15	7.115316
7.000000	15	0.871486
11	15	18.1645
15	15	22.2533
19	15	21.2633
23	15	15.4132
27	15	21.9147
31	15	18.8219
35	15	22.0372
-27.5	15.5	0.639823
-23.5	15.5	30.636
-19.5	15.5	0.639823
-15.5	15.5	0.639823
-11.5	15.5	19.0981
-7.500000	15.5	20.765
-3.500000	15.5	0.639823
0.500000	15.5	23.4871
4.500000	15.5	10.6034
8.500000	15.5	3.257600
12.5	15.5	24.2451
16.5	15.5	43.4638
20.5	15.5	17.315
24.5	15.5	16.3965
28.5	15.5	21.312
32.5	15.5	26.1573
36.5	15.5	14.7237
-26	16	0.639823
-22	16	0.639823
-18	16	20.8468
-14	16	0.885323
-10	16	19.909
-6.000000	16	0.639823
-2.000000	16	5.815465
2.000000	16	16.3231
6.000000	16	7.500086
10	16	22.3044
14	16	22.0698
18	16	21.2014
22	16	18.5491
26	16	27.5811
30	16	16.8465
34	16	18.8644
38	16	1.206582
-24.5	16.5	0.639823
-20.5	16.5	0.639823
-16.5	16.5	1.664215
-12.5	16.5	26.6782
-8.500000	16.5	24.153
-4.500000	16.5	10.0128
-0.500000	16.5	5.387925
3.500000	16.5	16.4327
7.500000	16.5	0.639823
11.5	16.5	21.3906
15.5	16.5	25.7198
19.5	16.5	14.4403
23.5	16.5	18.28
27.5	16.5	20.8124
31.5	16.5	6.646028
35.5	16.5	19.5434
-27	17	0.639823
-23	17	0.639823
-19	17	0.639823
-15	17	0.651976
-11	17	17.3635
-7.000000	17	3.837322
-3.000000	17	0.897911
1.000000	17	17.938
5.000000	17	15.0745
9.000000	17	17.5959
13	17	17.6959
17	17	19.1275
21	17	16.1512
25	17	12.8142
29	17	21.9374
33	17	14.8621
37	17	12.1955
-25.5	17.5	0.707011
-21.5	17.5	14.7341
-17.5	17.5	0.639823
-13.5	17.5	22.8627
-9.500000	17.5	17.4194
-5.500000	17.5	3.509428
-1.500000	17.5	0.639823
2.500000	17.5	15.0342
6.500000	17.5	0.639823
10.5	17.5	17.3294
14.5	17.5	17.0209
18.5	17.5	15.6335
22.5	17.5	17.2843
26.5	17.5	22.2046
30.5	17.5	0.871905
34.5	17.5	16.5617
-28	18	49.272
-24	18	0.639823
-20	18	17.2622
-16	18	0.639823
-12	18	19.0535
-8.000000	18	24.8501
-4.000000	18	0.639823
0.000000	18	21.0463
4.000000	18	23.7281
8.000000	18	2.978906
12	18	19.6869
16	18	18.5712
20	18	17.7792
24	18	33.7268
28	18	80.9347
32	18	0.639823
36	18	0.639823
-26.5	18.5	22.0907
-22.5	18.5	0.767139
-18.5	18.5	3.043823
-14.5	18.5	18.0873
-10.5	18.5	31.1602
-6.500000	18.5	10.7668
-2.500000	18.5	0.639823
1.500000	18.5	23.0799
5.500000	18.5	0.841930
9.500000	18.5	20.5696
13.5	18.5	11.45
17.5	18.5	27.8559
21.5	18.5	17.1425
25.5	18.5	16.5449
29.5	18.5	0.639823
33.5	18.5	30.926
37.5	18.5	2.603058
-25	19	1.547525
-21	19	9.311209
-17	19	0.639823
-13	19	10.7364
-9.000000	19	29.5055
-5.000000	19	3.813688
-1.000000	19	1.281737
3.000000	19	28.1288
7.000000	19	1.737015
11	19	17.4709
15	19	16.3871
19	19	15.0001
23	19	17.1872
27	19	0.639823
31	19	3.165262
35	19	7.950073
-27.5	19.5	22.5961
-23.5	19.5	0.639823
-19.5	19.5	2.092536
-15.5	19.5	0.639823
-11.5	19.5	31.9241
-7.500000	19.5	4.325445
-3.500000	19.5	29.0151
0.500000	19.5	21.2036
4.500000	19.5	22.4915
8.500000	19.5	4.245230
12.5	19.5	15.5697
16.5	19.5	20.3524
20.5	19.5	27.5423
24.5	19.5	18.7693
28.5	19.5	0.639823
32.5	19.5	18.7138
36.5	19.5	5.828138
-26	20	1.445767
-22	20	41.467
-18	20	0.639823
-14	20	0.639823
-10	20	29.5063
-6.000000	20	21.1326
-2.000000	20	25.0079
2.000000	20	27.4736
6.000000	20	14.4078
10	20	18.2234
14	20	9.140793
18	20	18.1219
22	20	14.2474
26	20	0.768347
30	20	20.4399
34	20	18.3586
38	20	0.639823