File: data/derived_data/raman/20170920_Gr-NH2_for_Radisurf/20170920 Gr-NH for Radisurf map 1/Dp int.txt
#XList		#YList		#IList
-28	-22	0.000000
-24	-22	50.0003
-20	-22	22.9059
-16	-22	0.000000
-12	-22	69.5881
-8.000000	-22	60.3319
-4.000000	-22	89.2198
0.000000	-22	83.3553
4.000000	-22	16.5432
8.000000	-22	77.0455
12	-22	49.2168
16	-22	72.8649
20	-22	149.963
24	-22	98.172
28	-22	0.000000
32	-22	39.6274
36	-22	0.000000
-26.5	-21.5	0.000000
-22.5	-21.5	48.516
-18.5	-21.5	45.837
-14.5	-21.5	62.0237
-10.5	-21.5	71.3671
-6.500000	-21.5	68.5697
-2.500000	-21.5	46.4405
1.500000	-21.5	12.6435
5.500000	-21.5	82.6768
9.500000	-21.5	46.0988
13.5	-21.5	38.28
17.5	-21.5	49.864
21.5	-21.5	97.9121
25.5	-21.5	15.2611
29.5	-21.5	21.2093
33.5	-21.5	1.915882
37.5	-21.5	7.189018
-25	-21	38.4464
-21	-21	52.0806
-17	-21	57.3607
-13	-21	26.1017
-9.000000	-21	86.2557
-5.000000	-21	91.6476
-1.000000	-21	55.6376
3.000000	-21	0.000000
7.000000	-21	34.7999
11	-21	44.199
15	-21	43.9503
19	-21	72.1435
23	-21	79.3963
27	-21	115.414
31	-21	44.4899
35	-21	0.000000
-27.5	-20.5	9.700008
-23.5	-20.5	0.000000
-19.5	-20.5	48.648
-15.5	-20.5	53.7075
-11.5	-20.5	13.9037
-7.500000	-20.5	61.8393
-3.500000	-20.5	38.3489
0.500000	-20.5	9.126141
4.500000	-20.5	62.2885
8.500000	-20.5	67.3381
12.5	-20.5	46.4766
16.5	-20.5	47.5069
20.5	-20.5	74.9637
24.5	-20.5	103.847
28.5	-20.5	60.5081
32.5	-20.5	3.733757
36.5	-20.5	3.219740
-26	-20	6.243290
-22	-20	46.3604
-18	-20	72.1701
-14	-20	23.4249
-10	-20	72.2667
-6.000000	-20	7.936406
-2.000000	-20	3.674650
2.000000	-20	5.782429
6.000000	-20	47.3481
10	-20	50.2226
14	-20	38.2189
18	-20	15.6001
22	-20	69.9179
26	-20	4.234152
30	-20	70.6702
34	-20	0.000000
38	-20	0.297340
-24.5	-19.5	47.1062
-20.5	-19.5	44.2954
-16.5	-19.5	86.613
-12.5	-19.5	0.000000
-8.500000	-19.5	57.6261
-4.500000	-19.5	92.5703
-0.500000	-19.5	1.899041
3.500000	-19.5	83.7936
7.500000	-19.5	50.092
11.5	-19.5	26.1375
15.5	-19.5	39.3803
19.5	-19.5	75.7205
23.5	-19.5	97.2248
27.5	-19.5	19.5521
31.5	-19.5	16.2416
35.5	-19.5	4.152494
-27	-19	0.000000
-23	-19	8.608709
-19	-19	49.996
-15	-19	82.2186
-11	-19	2.834452
-7.000000	-19	15.0765
-3.000000	-19	59.8426
1.000000	-19	0.000000
5.000000	-19	0.000000
9.000000	-19	55.4673
13	-19	33.8572
17	-19	35.7697
21	-19	75.2752
25	-19	12.4518
29	-19	111.765
33	-19	0.000000
37	-19	0.000000
-25.5	-18.5	0.000000
-21.5	-18.5	8.837480
-17.5	-18.5	0.000000
-13.5	-18.5	14.2906
-9.500000	-18.5	0.000000
-5.500000	-18.5	65.0771
-1.500000	-18.5	85.8813
2.500000	-18.5	59.4232
6.500000	-18.5	50.5363
10.5	-18.5	44.2072
14.5	-18.5	44.5728
18.5	-18.5	91.1068
22.5	-18.5	90.0431
26.5	-18.5	67.2102
30.5	-18.5	98.8224
34.5	-18.5	9.142467
-28	-18	0.000000
-24	-18	0.000000
-20	-18	7.040708
-16	-18	66.1709
-12	-18	0.000000
-8.000000	-18	1.508829
-4.000000	-18	82.7999
0.000000	-18	51.4334
4.000000	-18	70.3457
8.000000	-18	44.4552
12	-18	18.8462
16	-18	26.6144
20	-18	77.5575
24	-18	60.0365
28	-18	27.9175
32	-18	2.679745
36	-18	0.000000
-26.5	-17.5	0.000000
-22.5	-17.5	5.132588
-18.5	-17.5	48.421
-14.5	-17.5	63.6236
-10.5	-17.5	53.6375
-6.500000	-17.5	0.682164
-2.500000	-17.5	101.731
1.500000	-17.5	55.8411
5.500000	-17.5	50.2207
9.500000	-17.5	56.5315
13.5	-17.5	24.621
17.5	-17.5	78.1639
21.5	-17.5	74.8091
25.5	-17.5	77.3911
29.5	-17.5	48.4345
33.5	-17.5	20.6232
37.5	-17.5	4.415062
-25	-17	0.000000
-21	-17	2.972050
-17	-17	71.353
-13	-17	78.4656
-9.000000	-17	0.000000
-5.000000	-17	53.4055
-1.000000	-17	48.3398
3.000000	-17	91.1676
7.000000	-17	61.4035
11	-17	37.9649
15	-17	36.7909
19	-17	80.533
23	-17	51.8152
27	-17	58.0969
31	-17	95.5237
35	-17	10.393
-27.5	-16.5	24.1388
-23.5	-16.5	2.356364
-19.5	-16.5	48.9123
-15.5	-16.5	78.3175
-11.5	-16.5	50.5451
-7.500000	-16.5	25.9606
-3.500000	-16.5	75.4411
0.500000	-16.5	33.1195
4.500000	-16.5	66.4427
8.500000	-16.5	40.8491
12.5	-16.5	25.4681
16.5	-16.5	37.1297
20.5	-16.5	90.558
24.5	-16.5	77.5649
28.5	-16.5	68.9341
32.5	-16.5	0.000000
36.5	-16.5	0.000000
-26	-16	8.770428
-22	-16	19.0767
-18	-16	52.262
-14	-16	75.9696
-10	-16	78.5701
-6.000000	-16	78.632
-2.000000	-16	106.331
2.000000	-16	69.9619
6.000000	-16	61.1029
10	-16	49.583
14	-16	30.1356
18	-16	58.414
22	-16	72.2656
26	-16	41.0676
30	-16	50.5831
34	-16	0.000000
38	-16	0.321348
-24.5	-15.5	0.000000
-20.5	-15.5	4.950540
-16.5	-15.5	74.412
-12.5	-15.5	70.5026
-8.500000	-15.5	54.2045
-4.500000	-15.5	82.3604
-0.500000	-15.5	84.1819
3.500000	-15.5	41.0792
7.500000	-15.5	50.6939
11.5	-15.5	37.1483
15.5	-15.5	34.1677
19.5	-15.5	64.5899
23.5	-15.5	12.7061
27.5	-15.5	68.3126
31.5	-15.5	30.6275
35.5	-15.5	56.3085
-27	-15	15.2847
-23	-15	37.4746
-19	-15	63.7202
-15	-15	69.042
-11	-15	86.0989
-7.000000	-15	85.8268
-3.000000	-15	61.7962
1.000000	-15	83.1946
5.000000	-15	61.0435
9.000000	-15	47.1096
13	-15	28.8326
17	-15	36.0188
21	-15	56.0915
25	-15	5.934237
29	-15	25.7173
33	-15	15.9022
37	-15	22.4932
-25.5	-14.5	4.416572
-21.5	-14.5	3.953371
-17.5	-14.5	75.1103
-13.5	-14.5	0.000000
-9.500000	-14.5	78.2287
-5.500000	-14.5	48.2466
-1.500000	-14.5	93.2016
2.500000	-14.5	45.0097
6.500000	-14.5	79.9585
10.5	-14.5	56.5907
14.5	-14.5	43.7931
18.5	-14.5	28.4156
22.5	-14.5	7.741978
26.5	-14.5	11.2651
30.5	-14.5	43.3205
34.5	-14.5	43.509
-28	-14	3.645399
-24	-14	0.000000
-20	-14	5.732753
-16	-14	43.6842
-12	-14	68.0071
-8.000000	-14	76.9032
-4.000000	-14	60.9908
0.000000	-14	97.2585
4.000000	-14	41.8638
8.000000	-14	59.4606
12	-14	40.4513
16	-14	46.0557
20	-14	15.6079
24	-14	34.9854
28	-14	44.9634
32	-14	36.7597
36	-14	21.5638
-26.5	-13.5	3.867979
-22.5	-13.5	0.000000
-18.5	-13.5	0.000000
-14.5	-13.5	79.6431
-10.5	-13.5	11.7425
-6.500000	-13.5	99.9346
-2.500000	-13.5	96.0682
1.500000	-13.5	50.7523
5.500000	-13.5	68.4557
9.500000	-13.5	53.4864
13.5	-13.5	25.8505
17.5	-13.5	53.1242
21.5	-13.5	78.9756
25.5	-13.5	22.7912
29.5	-13.5	47.7514
33.5	-13.5	42.9648
37.5	-13.5	32.617
-25	-13	6.366179
-21	-13	40.7015
-17	-13	0.000000
-13	-13	69.2184
-9.000000	-13	93.6859
-5.000000	-13	64.5674
-1.000000	-13	46.9323
3.000000	-13	58.4485
7.000000	-13	85.5979
11	-13	26.3519
15	-13	29.2463
19	-13	10.7949
23	-13	50.6572
27	-13	64.917
31	-13	82.6161
35	-13	26.0081
-27.5	-12.5	20.1985
-23.5	-12.5	13.6937
-19.5	-12.5	11.9745
-15.5	-12.5	60.744
-11.5	-12.5	49.3635
-7.500000	-12.5	68.885
-3.500000	-12.5	0.000000
0.500000	-12.5	41.5572
4.500000	-12.5	10.4077
8.500000	-12.5	26.3051
12.5	-12.5	5.105346
16.5	-12.5	44.2558
20.5	-12.5	46.5029
24.5	-12.5	85.3734
28.5	-12.5	62.9424
32.5	-12.5	8.107954
36.5	-12.5	31.9349
-26	-12	53.3674
-22	-12	17.635
-18	-12	86.9566
-14	-12	82.9069
-10	-12	77.5975
-6.000000	-12	54.8122
-2.000000	-12	63.2074
2.000000	-12	46.5608
6.000000	-12	67.7752
10	-12	6.708469
14	-12	0.000000
18	-12	32.6877
22	-12	12.6917
26	-12	27.946
30	-12	54.8028
34	-12	18.6128
38	-12	16.5382
-24.5	-11.5	26.5252
-20.5	-11.5	0.000000
-16.5	-11.5	82.8995
-12.5	-11.5	31.299
-8.500000	-11.5	86.0762
-4.500000	-11.5	46.3535
-0.500000	-11.5	44.6997
3.500000	-11.5	55.5288
7.500000	-11.5	91.2738
11.5	-11.5	10.3425
15.5	-11.5	5.052123
19.5	-11.5	22.9651
23.5	-11.5	52.8682
27.5	-11.5	7.312199
31.5	-11.5	0.000000
35.5	-11.5	30.5122
-27	-11	19.341
-23	-11	5.135213
-19	-11	72.1523
-15	-11	0.000000
-11	-11	73.5495
-7.000000	-11	49.2211
-3.000000	-11	72.7524
1.000000	-11	41.9769
5.000000	-11	58.7714
9.000000	-11	84.295
13	-11	0.000000
17	-11	16.2416
21	-11	69.0179
25	-11	37.3844
29	-11	11.3738
33	-11	18.5819
37	-11	19.222
-25.5	-10.5	1.208151
-21.5	-10.5	0.000000
-17.5	-10.5	49.2786
-13.5	-10.5	56.6984
-9.500000	-10.5	100.651
-5.500000	-10.5	37.951
-1.500000	-10.5	22.4201
2.500000	-10.5	57.2415
6.500000	-10.5	72.3981
10.5	-10.5	56.9454
14.5	-10.5	2.629221
18.5	-10.5	35.8779
22.5	-10.5	0.000000
26.5	-10.5	46.8944
30.5	-10.5	4.249500
34.5	-10.5	12.1926
-28	-10	78.3091
-24	-10	6.217484
-20	-10	48.6774
-16	-10	75.9212
-12	-10	78.6153
-8.000000	-10	49.6761
-4.000000	-10	33.9113
0.000000	-10	50.2764
4.000000	-10	61.9336
8.000000	-10	58.5909
12	-10	15.4619
16	-10	4.281937
20	-10	63.4682
24	-10	62.9055
28	-10	0.000000
32	-10	0.000000
36	-10	0.000000
-26.5	-9.500000	1.396888
-22.5	-9.500000	99.9202
-18.5	-9.500000	76.1034
-14.5	-9.500000	77.8297
-10.5	-9.500000	9.637321
-6.500000	-9.500000	43.7473
-2.500000	-9.500000	38.9084
1.500000	-9.500000	51.2281
5.500000	-9.500000	68.315
9.500000	-9.500000	70.0667
13.5	-9.500000	29.8857
17.5	-9.500000	4.661567
21.5	-9.500000	47.047
25.5	-9.500000	53.9796
29.5	-9.500000	93.7272
33.5	-9.500000	43.3022
37.5	-9.500000	11.6723
-25	-9.000000	1.647647
-21	-9.000000	0.309516
-17	-9.000000	54.5593
-13	-9.000000	34.1214
-9.000000	-9.000000	62.997
-5.000000	-9.000000	38.7399
-1.000000	-9.000000	91.353
3.000000	-9.000000	62.5261
7.000000	-9.000000	25.2113
11	-9.000000	93.8012
15	-9.000000	6.829059
19	-9.000000	79.4209
23	-9.000000	88.0072
27	-9.000000	20.1435
31	-9.000000	4.995922
35	-9.000000	17.2665
-27.5	-8.500000	2.980660
-23.5	-8.500000	94.8651
-19.5	-8.500000	53.0502
-15.5	-8.500000	36.0422
-11.5	-8.500000	14.416
-7.500000	-8.500000	30.8791
-3.500000	-8.500000	42.6962
0.500000	-8.500000	58.5052
4.500000	-8.500000	65.738
8.500000	-8.500000	94.7094
12.5	-8.500000	49.7913
16.5	-8.500000	30.0554
20.5	-8.500000	98.8333
24.5	-8.500000	30.9071
28.5	-8.500000	38.9096
32.5	-8.500000	59.3264
36.5	-8.500000	5.652919
-26	-8.000000	4.629393
-22	-8.000000	69.9246
-18	-8.000000	0.000000
-14	-8.000000	67.3354
-10	-8.000000	65.7577
-6.000000	-8.000000	35.0249
-2.000000	-8.000000	58.8198
2.000000	-8.000000	47.1452
6.000000	-8.000000	30.3434
10	-8.000000	107.951
14	-8.000000	95.9375
18	-8.000000	44.0948
22	-8.000000	62.6381
26	-8.000000	58.9182
30	-8.000000	64.7392
34	-8.000000	65.1861
38	-8.000000	0.247670
-24.5	-7.500000	44.5978
-20.5	-7.500000	103.63
-16.5	-7.500000	48.6779
-12.5	-7.500000	72.0371
-8.500000	-7.500000	57.3355
-4.500000	-7.500000	45.3058
-0.500000	-7.500000	95.4652
3.500000	-7.500000	97.4715
7.500000	-7.500000	23.8593
11.5	-7.500000	59.1286
15.5	-7.500000	79.9128
19.5	-7.500000	41.4291
23.5	-7.500000	50.4417
27.5	-7.500000	31.9953
31.5	-7.500000	22.2027
35.5	-7.500000	46.5795
-27	-7.000000	103.594
-23	-7.000000	84.7161
-19	-7.000000	107.565
-15	-7.000000	57.6642
-11	-7.000000	29.1091
-7.000000	-7.000000	59.6724
-3.000000	-7.000000	43.9434
1.000000	-7.000000	56.8901
5.000000	-7.000000	26.2212
9.000000	-7.000000	47.9275
13	-7.000000	56.0558
17	-7.000000	76.2354
21	-7.000000	30.3497
25	-7.000000	36.5786
29	-7.000000	11.7106
33	-7.000000	54.413
37	-7.000000	63.4904
-25.5	-6.500000	2.035035
-21.5	-6.500000	88.5573
-17.5	-6.500000	96.8968
-13.5	-6.500000	82.1189
-9.500000	-6.500000	34.4644
-5.500000	-6.500000	42.2935
-1.500000	-6.500000	50.3455
2.500000	-6.500000	59.0695
6.500000	-6.500000	18.942
10.5	-6.500000	60.4536
14.5	-6.500000	62.9671
18.5	-6.500000	54.2682
22.5	-6.500000	39.7103
26.5	-6.500000	18.3989
30.5	-6.500000	17.6224
34.5	-6.500000	86.5119
-28	-6.000000	27.4153
-24	-6.000000	81.1942
-20	-6.000000	0.000000
-16	-6.000000	73.4811
-12	-6.000000	48.5741
-8.000000	-6.000000	46.1231
-4.000000	-6.000000	86.361
0.000000	-6.000000	55.0232
4.000000	-6.000000	86.7856
8.000000	-6.000000	50.3634
12	-6.000000	0.000000
16	-6.000000	64.4706
20	-6.000000	46.2661
24	-6.000000	54.7166
28	-6.000000	17.3039
32	-6.000000	13.9301
36	-6.000000	56.5943
-26.5	-5.500000	4.882027
-22.5	-5.500000	57.6813
-18.5	-5.500000	34.2072
-14.5	-5.500000	73.4595
-10.5	-5.500000	0.872572
-6.500000	-5.500000	0.000000
-2.500000	-5.500000	5.524513
1.500000	-5.500000	36.3137
5.500000	-5.500000	64.077
9.500000	-5.500000	70.108
13.5	-5.500000	58.9204
17.5	-5.500000	46.8271
21.5	-5.500000	34.4511
25.5	-5.500000	33.4379
29.5	-5.500000	27.7414
33.5	-5.500000	60.7504
37.5	-5.500000	49.2575
-25	-5.000000	0.000000
-21	-5.000000	87.7754
-17	-5.000000	59.2576
-13	-5.000000	31.2229
-9.000000	-5.000000	0.550761
-5.000000	-5.000000	0.000000
-1.000000	-5.000000	51.8482
3.000000	-5.000000	83.4219
7.000000	-5.000000	30.1403
11	-5.000000	51.0675
15	-5.000000	51.8708
19	-5.000000	25.47
23	-5.000000	35.0233
27	-5.000000	26.0964
31	-5.000000	0.000000
35	-5.000000	54.1534
-27.5	-4.500000	12.6205
-23.5	-4.500000	48.4734
-19.5	-4.500000	63.0257
-15.5	-4.500000	55.4424
-11.5	-4.500000	2.852259
-7.500000	-4.500000	5.236462
-3.500000	-4.500000	30.805
0.500000	-4.500000	81.2859
4.500000	-4.500000	28.8005
8.500000	-4.500000	69.5712
12.5	-4.500000	62.5002
16.5	-4.500000	56.3375
20.5	-4.500000	13.1654
24.5	-4.500000	38.276
28.5	-4.500000	66.2692
32.5	-4.500000	32.3884
36.5	-4.500000	51.4776
-26	-4.000000	11.6175
-22	-4.000000	120.779
-18	-4.000000	51.9274
-14	-4.000000	0.000000
-10	-4.000000	3.099639
-6.000000	-4.000000	4.257434
-2.000000	-4.000000	76.233
2.000000	-4.000000	47.1756
6.000000	-4.000000	2.242833
10	-4.000000	42.3627
14	-4.000000	29.8238
18	-4.000000	28.7431
22	-4.000000	32.9168
26	-4.000000	23.6543
30	-4.000000	81.238
34	-4.000000	51.0821
38	-4.000000	76.4851
-24.5	-3.500000	0.000000
-20.5	-3.500000	62.5098
-16.5	-3.500000	31.785
-12.5	-3.500000	24.4037
-8.500000	-3.500000	33.6762
-4.500000	-3.500000	0.000000
-0.500000	-3.500000	67.3221
3.500000	-3.500000	29.4945
7.500000	-3.500000	15.7659
11.5	-3.500000	49.9182
15.5	-3.500000	30.7286
19.5	-3.500000	27.223
23.5	-3.500000	40.568
27.5	-3.500000	30.7765
31.5	-3.500000	0.000000
35.5	-3.500000	30.9865
-27	-3.000000	14.757
-23	-3.000000	25.7848
-19	-3.000000	39.517
-15	-3.000000	43.2852
-11	-3.000000	6.634380
-7.000000	-3.000000	0.000000
-3.000000	-3.000000	11.4974
1.000000	-3.000000	78.8148
5.000000	-3.000000	18.6745
9.000000	-3.000000	17.8682
13	-3.000000	29.0961
17	-3.000000	28.8738
21	-3.000000	33.5187
25	-3.000000	32.0653
29	-3.000000	50.6776
33	-3.000000	2.160310
37	-3.000000	39.0738
-25.5	-2.500000	0.000000
-21.5	-2.500000	18.9426
-17.5	-2.500000	58.5076
-13.5	-2.500000	30.8483
-9.500000	-2.500000	3.875769
-5.500000	-2.500000	0.000000
-1.500000	-2.500000	80.329
2.500000	-2.500000	62.3363
6.500000	-2.500000	14.4234
10.5	-2.500000	47.618
14.5	-2.500000	31.2274
18.5	-2.500000	32.7833
22.5	-2.500000	29.5948
26.5	-2.500000	14.6659
30.5	-2.500000	12.1439
34.5	-2.500000	57.7804
-28	-2.000000	21.6412
-24	-2.000000	1.219991
-20	-2.000000	6.598420
-16	-2.000000	53.9735
-12	-2.000000	0.673183
-8.000000	-2.000000	8.832959
-4.000000	-2.000000	1.418582
0.000000	-2.000000	56.3458
4.000000	-2.000000	71.2383
8.000000	-2.000000	0.000000
12	-2.000000	48.4558
16	-2.000000	35.8781
20	-2.000000	16.5059
24	-2.000000	36.2851
28	-2.000000	35.8344
32	-2.000000	6.362942
36	-2.000000	56.3038
-26.5	-1.500000	11.1851
-22.5	-1.500000	0.000000
-18.5	-1.500000	63.0508
-14.5	-1.500000	58.1517
-10.5	-1.500000	29.9368
-6.500000	-1.500000	0.000000
-2.500000	-1.500000	8.966880
1.500000	-1.500000	49.5451
5.500000	-1.500000	29.6481
9.500000	-1.500000	82.7857
13.5	-1.500000	0.000000
17.5	-1.500000	30.0701
21.5	-1.500000	27.5377
25.5	-1.500000	46.9496
29.5	-1.500000	44.6339
33.5	-1.500000	0.000000
37.5	-1.500000	58.0211
-25	-1.000000	17.7909
-21	-1.000000	4.956853
-17	-1.000000	45.5971
-13	-1.000000	52.1466
-9.000000	-1.000000	55.2088
-5.000000	-1.000000	0.000000
-1.000000	-1.000000	42.8195
3.000000	-1.000000	0.000000
7.000000	-1.000000	0.000000
11	-1.000000	61.14
15	-1.000000	31.4743
19	-1.000000	23.8983
23	-1.000000	24.4055
27	-1.000000	39.6058
31	-1.000000	60.5944
35	-1.000000	72.4313
-27.5	-0.500000	13.3368
-23.5	-0.500000	0.000000
-19.5	-0.500000	24.8357
-15.5	-0.500000	57.4809
-11.5	-0.500000	63.6224
-7.500000	-0.500000	50.324
-3.500000	-0.500000	5.699591
0.500000	-0.500000	27.0234
4.500000	-0.500000	19.5319
8.500000	-0.500000	105.712
12.5	-0.500000	41.4834
16.5	-0.500000	29.6468
20.5	-0.500000	31.9575
24.5	-0.500000	35.9276
28.5	-0.500000	60.6231
32.5	-0.500000	8.082610
36.5	-0.500000	33.5046
-26	0.000000	52.8897
-22	0.000000	6.494974
-18	0.000000	70.9257
-14	0.000000	60.2099
-10	0.000000	57.403
-6.000000	0.000000	4.449050
-2.000000	0.000000	28.8624
2.000000	0.000000	3.185063
6.000000	0.000000	44.7853
10	0.000000	58.3345
14	0.000000	37.1929
18	0.000000	33.6075
22	0.000000	20.6599
26	0.000000	33.5554
30	0.000000	33.9566
34	0.000000	0.000000
38	0.000000	47.5279
-24.5	0.500000	36.6465
-20.5	0.500000	0.000000
-16.5	0.500000	50.8536
-12.5	0.500000	67.7918
-8.500000	0.500000	51.1691
-4.500000	0.500000	0.000000
-0.500000	0.500000	51.0056
3.500000	0.500000	34.8486
7.500000	0.500000	19.6289
11.5	0.500000	34.1275
15.5	0.500000	39.7917
19.5	0.500000	19.1384
23.5	0.500000	21.3693
27.5	0.500000	39.5597
31.5	0.500000	32.4134
35.5	0.500000	3.679794
-27	1.000000	59.293
-23	1.000000	107.482
-19	1.000000	93.5309
-15	1.000000	51.8591
-11	1.000000	65.3051
-7.000000	1.000000	7.137100
-3.000000	1.000000	31.7842
1.000000	1.000000	31.9365
5.000000	1.000000	71.4479
9.000000	1.000000	58.2996
13	1.000000	31.0984
17	1.000000	47.5394
21	1.000000	34.9671
25	1.000000	32.2266
29	1.000000	64.3746
33	1.000000	76.2545
37	1.000000	0.000000
-25.5	1.500000	78.0011
-21.5	1.500000	112.21
-17.5	1.500000	64.5401
-13.5	1.500000	42.2821
-9.500000	1.500000	47.9483
-5.500000	1.500000	11.7201
-1.500000	1.500000	24.7956
2.500000	1.500000	26.7256
6.500000	1.500000	56.4807
10.5	1.500000	73.0104
14.5	1.500000	31.941
18.5	1.500000	28.7389
22.5	1.500000	23.2572
26.5	1.500000	43.0276
30.5	1.500000	43.9217
34.5	1.500000	3.018324
-28	2.000000	95.446
-24	2.000000	62.4969
-20	2.000000	50.6855
-16	2.000000	54.618
-12	2.000000	52.8645
-8.000000	2.000000	42.511
-4.000000	2.000000	19.4011
0.000000	2.000000	39.951
4.000000	2.000000	58.9669
8.000000	2.000000	26.3435
12	2.000000	45.8752
16	2.000000	35.2975
20	2.000000	29.1853
24	2.000000	23.9093
28	2.000000	47.2508
32	2.000000	7.305299
36	2.000000	8.654310
-26.5	2.500000	52.8857
-22.5	2.500000	137.725
-18.5	2.500000	71.7651
-14.5	2.500000	69.1781
-10.5	2.500000	36.4487
-6.500000	2.500000	12.7422
-2.500000	2.500000	11.3265
1.500000	2.500000	71.1327
5.500000	2.500000	34.877
9.500000	2.500000	53.6556
13.5	2.500000	49.4543
17.5	2.500000	30.681
21.5	2.500000	28.8164
25.5	2.500000	29.8275
29.5	2.500000	53.6371
33.5	2.500000	8.104396
37.5	2.500000	5.266587
-25	3.000000	31.3403
-21	3.000000	78.6266
-17	3.000000	53.6595
-13	3.000000	78.254
-9.000000	3.000000	49.5294
-5.000000	3.000000	5.517986
-1.000000	3.000000	21.739
3.000000	3.000000	38.6098
7.000000	3.000000	80.1895
11	3.000000	50.6002
15	3.000000	57.3617
19	3.000000	38.7596
23	3.000000	29.7107
27	3.000000	53.4522
31	3.000000	36.4715
35	3.000000	3.623012
-27.5	3.500000	70.2274
-23.5	3.500000	66.9106
-19.5	3.500000	66.5108
-15.5	3.500000	62.1168
-11.5	3.500000	46.5859
-7.500000	3.500000	41.6497
-3.500000	3.500000	48.6085
0.500000	3.500000	49.4207
4.500000	3.500000	33.9985
8.500000	3.500000	27.0575
12.5	3.500000	67.1515
16.5	3.500000	20.0531
20.5	3.500000	28.8229
24.5	3.500000	24.6504
28.5	3.500000	51.6459
32.5	3.500000	0.010010
36.5	3.500000	57.3636
-26	4.000000	64.5718
-22	4.000000	27.3031
-18	4.000000	58.9292
-14	4.000000	59.9903
-10	4.000000	36.7759
-6.000000	4.000000	36.5735
-2.000000	4.000000	48.3209
2.000000	4.000000	62.8973
6.000000	4.000000	64.4221
10	4.000000	59.3772
14	4.000000	61.0857
18	4.000000	22.5608
22	4.000000	33.4919
26	4.000000	32.7082
30	4.000000	36.1197
34	4.000000	0.000000
38	4.000000	60.9411
-24.5	4.500000	15.9858
-20.5	4.500000	74.8731
-16.5	4.500000	57.7231
-12.5	4.500000	60.5345
-8.500000	4.500000	49.2559
-4.500000	4.500000	49.125
-0.500000	4.500000	56.7687
3.500000	4.500000	36.0192
7.500000	4.500000	56.1726
11.5	4.500000	49.3651
15.5	4.500000	84.2265
19.5	4.500000	32.6543
23.5	4.500000	16.622
27.5	4.500000	30.2354
31.5	4.500000	0.000000
35.5	4.500000	76.6224
-27	5.000000	99.5707
-23	5.000000	95.7699
-19	5.000000	72.5526
-15	5.000000	46.884
-11	5.000000	52.943
-7.000000	5.000000	39.6379
-3.000000	5.000000	34.1411
1.000000	5.000000	67.6065
5.000000	5.000000	28.8744
9.000000	5.000000	49.2994
13	5.000000	73.3929
17	5.000000	0.000000
21	5.000000	27.5419
25	5.000000	16.5739
29	5.000000	48.8927
33	5.000000	9.616490
37	5.000000	29.2715
-25.5	5.500000	51.7334
-21.5	5.500000	40.2681
-17.5	5.500000	82.8324
-13.5	5.500000	51.8599
-9.500000	5.500000	66.3346
-5.500000	5.500000	37.4759
-1.500000	5.500000	45.4505
2.500000	5.500000	42.7558
6.500000	5.500000	59.658
10.5	5.500000	80.2901
14.5	5.500000	65.7343
18.5	5.500000	48.3657
22.5	5.500000	22.1679
26.5	5.500000	24.3618
30.5	5.500000	30.1356
34.5	5.500000	50.5556
-28	6.000000	52.0201
-24	6.000000	21.771
-20	6.000000	79.9295
-16	6.000000	78.5466
-12	6.000000	51.3411
-8.000000	6.000000	97.1616
-4.000000	6.000000	45.6598
0.000000	6.000000	46.2899
4.000000	6.000000	41.6374
8.000000	6.000000	66.9492
12	6.000000	44.5573
16	6.000000	57.4596
20	6.000000	31.4957
24	6.000000	24.303
28	6.000000	29.6407
32	6.000000	21.2505
36	6.000000	53.7482
-26.5	6.500000	22.9987
-22.5	6.500000	86.536
-18.5	6.500000	81.6518
-14.5	6.500000	87.6175
-10.5	6.500000	44.5382
-6.500000	6.500000	42.6554
-2.500000	6.500000	45.4712
1.500000	6.500000	59.7894
5.500000	6.500000	41.8977
9.500000	6.500000	47.4212
13.5	6.500000	75.5364
17.5	6.500000	42.5472
21.5	6.500000	25.8285
25.5	6.500000	28.3395
29.5	6.500000	29.0994
33.5	6.500000	75.9963
37.5	6.500000	40.444
-25	7.000000	5.074283
-21	7.000000	100.166
-17	7.000000	58.2382
-13	7.000000	46.7423
-9.000000	7.000000	101.754
-5.000000	7.000000	80.9847
-1.000000	7.000000	48.8186
3.000000	7.000000	48.8578
7.000000	7.000000	48.8134
11	7.000000	40.4106
15	7.000000	56.1229
19	7.000000	53.3763
23	7.000000	20.3241
27	7.000000	30.8783
31	7.000000	38.8444
35	7.000000	39.0692
-27.5	7.500000	6.847748
-23.5	7.500000	14.1647
-19.5	7.500000	103.46
-15.5	7.500000	83.9328
-11.5	7.500000	47.5076
-7.500000	7.500000	78.4076
-3.500000	7.500000	49.1926
0.500000	7.500000	44.4632
4.500000	7.500000	41.3859
8.500000	7.500000	42.9382
12.5	7.500000	67.1352
16.5	7.500000	19.6404
20.5	7.500000	34.1324
24.5	7.500000	44.1254
28.5	7.500000	42.8042
32.5	7.500000	61.5958
36.5	7.500000	21.6
-26	8.000000	9.462259
-22	8.000000	102.455
-18	8.000000	59.8401
-14	8.000000	93.1898
-10	8.000000	53.9225
-6.000000	8.000000	61.1015
-2.000000	8.000000	56.6429
2.000000	8.000000	54.5328
6.000000	8.000000	58.2038
10	8.000000	59.9817
14	8.000000	50.9352
18	8.000000	28.3825
22	8.000000	25.5292
26	8.000000	43.2734
30	8.000000	38.922
34	8.000000	53.318
38	8.000000	58.6637
-24.5	8.500000	23.4815
-20.5	8.500000	81.322
-16.5	8.500000	95.0475
-12.5	8.500000	73.1072
-8.500000	8.500000	61.3966
-4.500000	8.500000	75.542
-0.500000	8.500000	77.5268
3.500000	8.500000	56.2643
7.500000	8.500000	38.7736
11.5	8.500000	56.6154
15.5	8.500000	50.6448
19.5	8.500000	21.3949
23.5	8.500000	33.4335
27.5	8.500000	41.4959
31.5	8.500000	68.7684
35.5	8.500000	65.5339
-27	9.000000	0.000000
-23	9.000000	23.6746
-19	9.000000	75.0682
-15	9.000000	141.783
-11	9.000000	77.4861
-7.000000	9.000000	72.8189
-3.000000	9.000000	89.5416
1.000000	9.000000	84.2898
5.000000	9.000000	33.4938
9.000000	9.000000	77.4012
13	9.000000	51.1363
17	9.000000	40.1578
21	9.000000	48.1582
25	9.000000	45.4442
29	9.000000	36.8548
33	9.000000	58.776
37	9.000000	61.135
-25.5	9.500000	11.7938
-21.5	9.500000	80.2863
-17.5	9.500000	58.8396
-13.5	9.500000	95.9235
-9.500000	9.500000	112.815
-5.500000	9.500000	68.5175
-1.500000	9.500000	13.7391
2.500000	9.500000	43.8858
6.500000	9.500000	54.6579
10.5	9.500000	63.0277
14.5	9.500000	62.6748
18.5	9.500000	10.5916
22.5	9.500000	29.9658
26.5	9.500000	35.958
30.5	9.500000	48.0224
34.5	9.500000	71.8901
-28	10	0.000000
-24	10	29.1528
-20	10	80.955
-16	10	64.204
-12	10	88.8929
-8.000000	10	76.6846
-4.000000	10	70.6649
0.000000	10	0.000000
4.000000	10	11.9653
8.000000	10	69.3607
12	10	84.5525
16	10	43.2799
20	10	58.5492
24	10	38.4874
28	10	48.7987
32	10	62.1506
36	10	76.2953
-26.5	10.5	0.000000
-22.5	10.5	91.7101
-18.5	10.5	11.4156
-14.5	10.5	81.2138
-10.5	10.5	89.5697
-6.500000	10.5	102.665
-2.500000	10.5	81.8672
1.500000	10.5	86.201
5.500000	10.5	3.372360
9.500000	10.5	46.415
13.5	10.5	70.924
17.5	10.5	41.9472
21.5	10.5	66.1161
25.5	10.5	38.9868
29.5	10.5	36.3201
33.5	10.5	46.7304
37.5	10.5	67.8315
-25	11	4.031165
-21	11	26.5227
-17	11	81.1022
-13	11	105.522
-9.000000	11	70.2921
-5.000000	11	101.948
-1.000000	11	78.54
3.000000	11	29.7735
7.000000	11	31.4142
11	11	49.4002
15	11	54.0373
19	11	51.991
23	11	44.6027
27	11	35.8283
31	11	47.7615
35	11	70.5267
-27.5	11.5	27.0625
-23.5	11.5	39.6207
-19.5	11.5	10.3001
-15.5	11.5	13.3593
-11.5	11.5	89.1302
-7.500000	11.5	62.3909
-3.500000	11.5	112.804
0.500000	11.5	62.0589
4.500000	11.5	19.155
8.500000	11.5	63.4405
12.5	11.5	72.2227
16.5	11.5	36.4015
20.5	11.5	77.561
24.5	11.5	43.7259
28.5	11.5	43.9541
32.5	11.5	75.3904
36.5	11.5	51.2883
-26	12	7.856472
-22	12	102.31
-18	12	12.5032
-14	12	8.283000
-10	12	90.4084
-6.000000	12	76.7489
-2.000000	12	93.2664
2.000000	12	48.7357
6.000000	12	0.000000
10	12	42.4155
14	12	57.1461
18	12	52.8525
22	12	55.5605
26	12	56.1393
30	12	38.5171
34	12	82.5889
38	12	67.9887
-24.5	12.5	2.951776
-20.5	12.5	4.279847
-16.5	12.5	2.044000
-12.5	12.5	106.972
-8.500000	12.5	78.2654
-4.500000	12.5	88.6949
-0.500000	12.5	68.3622
3.500000	12.5	0.000000
7.500000	12.5	57.1936
11.5	12.5	79.3938
15.5	12.5	44.4872
19.5	12.5	67.8123
23.5	12.5	54.5711
27.5	12.5	40.9598
31.5	12.5	63.6569
35.5	12.5	65.9265
-27	13	4.292366
-23	13	1.073559
-19	13	48.4386
-15	13	0.000000
-11	13	98.0637
-7.000000	13	67.6573
-3.000000	13	67.158
1.000000	13	58.5069
5.000000	13	0.000000
9.000000	13	61.3793
13	13	68.2176
17	13	42.2969
21	13	82.3624
25	13	31.5317
29	13	44.3591
33	13	59.0826
37	13	78.8292
-25.5	13.5	39.7157
-21.5	13.5	0.000000
-17.5	13.5	31.462
-13.5	13.5	0.000000
-9.500000	13.5	41.37
-5.500000	13.5	67.8151
-1.500000	13.5	44.7681
2.500000	13.5	14.346
6.500000	13.5	5.844062
10.5	13.5	50.2802
14.5	13.5	37.2082
18.5	13.5	56.7209
22.5	13.5	82.9315
26.5	13.5	45.1669
30.5	13.5	88.9416
34.5	13.5	53.2888
-28	14	0.000000
-24	14	49.042
-20	14	0.000000
-16	14	0.254267
-12	14	66.3026
-8.000000	14	51.4693
-4.000000	14	99.0411
0.000000	14	101.087
4.000000	14	0.000000
8.000000	14	46.6022
12	14	105.363
16	14	26.2994
20	14	96.4754
24	14	43.6347
28	14	40.0301
32	14	61.6799
36	14	61.0423
-26.5	14.5	17.4016
-22.5	14.5	2.188299
-18.5	14.5	34.6889
-14.5	14.5	6.765818
-10.5	14.5	66.4399
-6.500000	14.5	34.3484
-2.500000	14.5	67.7468
1.500000	14.5	0.000000
5.500000	14.5	5.648077
9.500000	14.5	28.2922
13.5	14.5	55.8429
17.5	14.5	46.9064
21.5	14.5	105.054
25.5	14.5	46.3618
29.5	14.5	54.0852
33.5	14.5	65.2661
37.5	14.5	91.0039
-25	15	0.000000
-21	15	0.000000
-17	15	6.803116
-13	15	0.000000
-9.000000	15	59.7269
-5.000000	15	23.0652
-1.000000	15	44.335
3.000000	15	3.423907
7.000000	15	17.0214
11	15	70.1569
15	15	53.2919
19	15	60.8215
23	15	65.342
27	15	61.488
31	15	55.0031
35	15	54.9906
-27.5	15.5	8.914739
-23.5	15.5	3.293611
-19.5	15.5	0.000000
-15.5	15.5	0.000000
-11.5	15.5	26.9513
-7.500000	15.5	4.661297
-3.500000	15.5	0.000000
0.500000	15.5	42.9049
4.500000	15.5	11.6702
8.500000	15.5	0.000000
12.5	15.5	90.0135
16.5	15.5	0.000000
20.5	15.5	61.842
24.5	15.5	69.4716
28.5	15.5	48.4962
32.5	15.5	86.2452
36.5	15.5	15.329
-26	16	5.996032
-22	16	11.4068
-18	16	4.004111
-14	16	70.6278
-10	16	63.56
-6.000000	16	33.7792
-2.000000	16	3.901412
2.000000	16	35.112
6.000000	16	0.553827
10	16	86.9328
14	16	64.0176
18	16	44.7341
22	16	89.5584
26	16	76.8699
30	16	61.2283
34	16	59.2213
38	16	2.195959
-24.5	16.5	0.000000
-20.5	16.5	0.000000
-16.5	16.5	14.8148
-12.5	16.5	21.2875
-8.500000	16.5	46.94
-4.500000	16.5	1.785170
-0.500000	16.5	4.511479
3.500000	16.5	84.8532
7.500000	16.5	102.793
11.5	16.5	38.511
15.5	16.5	56.5444
19.5	16.5	62.9323
23.5	16.5	76.3937
27.5	16.5	60.0724
31.5	16.5	10.3403
35.5	16.5	39.7743
-27	17	5.459326
-23	17	21.6289
-19	17	0.000000
-15	17	32.7253
-11	17	56.4188
-7.000000	17	9.014934
-3.000000	17	25.4157
1.000000	17	63.0915
5.000000	17	34.002
9.000000	17	36.2859
13	17	61.2927
17	17	68.7854
21	17	62.568
25	17	63.3599
29	17	38.8923
33	17	35.9156
37	17	6.769610
-25.5	17.5	15.1532
-21.5	17.5	2.426693
-17.5	17.5	0.000000
-13.5	17.5	8.816625
-9.500000	17.5	66.3934
-5.500000	17.5	6.217067
-1.500000	17.5	0.000000
2.500000	17.5	58.709
6.500000	17.5	0.000000
10.5	17.5	41.9352
14.5	17.5	49.7202
18.5	17.5	59.104
22.5	17.5	63.3708
26.5	17.5	8.320144
30.5	17.5	7.290587
34.5	17.5	27.751
-28	18	0.000000
-24	18	0.000000
-20	18	0.000000
-16	18	33.3461
-12	18	52.5878
-8.000000	18	28.6228
-4.000000	18	0.000000
0.000000	18	7.680475
4.000000	18	64.3924
8.000000	18	2.227553
12	18	90.3866
16	18	61.3681
20	18	49.8316
24	18	119.695
28	18	40.5876
32	18	0.000000
36	18	38.3031
-26.5	18.5	15.6548
-22.5	18.5	48.9142
-18.5	18.5	4.857846
-14.5	18.5	23.2934
-10.5	18.5	65.0884
-6.500000	18.5	2.281008
-2.500000	18.5	1.660313
1.500000	18.5	105.008
5.500000	18.5	44.0865
9.500000	18.5	13.4027
13.5	18.5	53.2756
17.5	18.5	74.9266
21.5	18.5	72.011
25.5	18.5	71.4924
29.5	18.5	0.000000
33.5	18.5	34.2623
37.5	18.5	0.000000
-25	19	9.151669
-21	19	6.928865
-17	19	0.000000
-13	19	47.5306
-9.000000	19	53.9507
-5.000000	19	0.000000
-1.000000	19	24.9325
3.000000	19	85.1145
7.000000	19	13.2159
11	19	53.9287
15	19	41.2449
19	19	70.469
23	19	72.0652
27	19	0.000000
31	19	0.000000
35	19	17.9095
-27.5	19.5	67.8117
-23.5	19.5	0.000000
-19.5	19.5	10.1556
-15.5	19.5	0.507435
-11.5	19.5	23.424
-7.500000	19.5	0.000000
-3.500000	19.5	85.8192
0.500000	19.5	77.997
4.500000	19.5	8.063748
8.500000	19.5	0.000000
12.5	19.5	18.9385
16.5	19.5	59.3701
20.5	19.5	65.6808
24.5	19.5	18.3627
28.5	19.5	6.759647
32.5	19.5	54.5937
36.5	19.5	7.862581
-26	20	0.000000
-22	20	21.8325
-18	20	0.000000
-14	20	57.1425
-10	20	85.5246
-6.000000	20	55.8644
-2.000000	20	40.4014
2.000000	20	57.0295
6.000000	20	5.031158
10	20	36.6711
14	20	25.377
18	20	51.573
22	20	65.6164
26	20	33.1708
30	20	3.409755
34	20	57.9721
38	20	0.297955