File: data/derived_data/raman/20170920_Gr-NH2_for_Radisurf/20170920 Gr-NH for Radisurf map 1/Dp pos.txt
#XList		#YList		#IList
-28	-22	1615.25
-24	-22	1606
-20	-22	1619.14
-16	-22	1620.42
-12	-22	1617.04
-8.000000	-22	1609.34
-4.000000	-22	1611.29
0.000000	-22	1615.3
4.000000	-22	1618.77
8.000000	-22	1615.4
12	-22	1613.83
16	-22	1613.36
20	-22	1606.71
24	-22	1619.77
28	-22	1624.55
32	-22	1613.68
36	-22	1640
-26.5	-21.5	1622.86
-22.5	-21.5	1600.55
-18.5	-21.5	1614.11
-14.5	-21.5	1615.16
-10.5	-21.5	1612.46
-6.500000	-21.5	1615.05
-2.500000	-21.5	1613.82
1.500000	-21.5	1616.68
5.500000	-21.5	1607.97
9.500000	-21.5	1611.28
13.5	-21.5	1613.63
17.5	-21.5	1615.7
21.5	-21.5	1608.45
25.5	-21.5	1614.37
29.5	-21.5	1619.81
33.5	-21.5	1617.4
37.5	-21.5	1621.47
-25	-21	1609.76
-21	-21	1605.89
-17	-21	1614.85
-13	-21	1614.6
-9.000000	-21	1607.78
-5.000000	-21	1616.45
-1.000000	-21	1614.87
3.000000	-21	1616.83
7.000000	-21	1600
11	-21	1614.33
15	-21	1613.89
19	-21	1614.72
23	-21	1613.77
27	-21	1612.21
31	-21	1613.42
35	-21	1618.23
-27.5	-20.5	1602.6
-23.5	-20.5	1620.69
-19.5	-20.5	1607.38
-15.5	-20.5	1608.63
-11.5	-20.5	1621.27
-7.500000	-20.5	1611.59
-3.500000	-20.5	1615.89
0.500000	-20.5	1620.55
4.500000	-20.5	1613.25
8.500000	-20.5	1611.37
12.5	-20.5	1607.14
16.5	-20.5	1611.89
20.5	-20.5	1614.82
24.5	-20.5	1616.26
28.5	-20.5	1613.63
32.5	-20.5	1611.28
36.5	-20.5	1618.72
-26	-20	1618.55
-22	-20	1613.97
-18	-20	1607.74
-14	-20	1617.59
-10	-20	1605.54
-6.000000	-20	1609.27
-2.000000	-20	1622.83
2.000000	-20	1616.51
6.000000	-20	1613.73
10	-20	1609.95
14	-20	1612.58
18	-20	1621.33
22	-20	1612.17
26	-20	1617.97
30	-20	1600
34	-20	1619.31
38	-20	1640
-24.5	-19.5	1605
-20.5	-19.5	1602.53
-16.5	-19.5	1600.73
-12.5	-19.5	1625.87
-8.500000	-19.5	1615.55
-4.500000	-19.5	1610.47
-0.500000	-19.5	1618.1
3.500000	-19.5	1615.25
7.500000	-19.5	1611.75
11.5	-19.5	1611.3
15.5	-19.5	1612.75
19.5	-19.5	1613.41
23.5	-19.5	1608.95
27.5	-19.5	1607.31
31.5	-19.5	1619.58
35.5	-19.5	1611.67
-27	-19	1600
-23	-19	1601.18
-19	-19	1605.16
-15	-19	1614.79
-11	-19	1607.29
-7.000000	-19	1616.76
-3.000000	-19	1615.1
1.000000	-19	1610.98
5.000000	-19	1622.52
9.000000	-19	1611.55
13	-19	1615.25
17	-19	1615.78
21	-19	1613.5
25	-19	1620.29
29	-19	1614.05
33	-19	1640
37	-19	1613.76
-25.5	-18.5	1609.86
-21.5	-18.5	1617.48
-17.5	-18.5	1610.86
-13.5	-18.5	1621.52
-9.500000	-18.5	1615.26
-5.500000	-18.5	1607.81
-1.500000	-18.5	1614.54
2.500000	-18.5	1613.31
6.500000	-18.5	1613.92
10.5	-18.5	1611.04
14.5	-18.5	1615.17
18.5	-18.5	1611.9
22.5	-18.5	1611.67
26.5	-18.5	1609.31
30.5	-18.5	1616.61
34.5	-18.5	1622.83
-28	-18	1640
-24	-18	1613.9
-20	-18	1624.06
-16	-18	1613.48
-12	-18	1602.5
-8.000000	-18	1621.34
-4.000000	-18	1613.82
0.000000	-18	1616.08
4.000000	-18	1615.01
8.000000	-18	1603.58
12	-18	1612.08
16	-18	1606.79
20	-18	1612.75
24	-18	1618.63
28	-18	1617.04
32	-18	1618.33
36	-18	1619.51
-26.5	-17.5	1608.06
-22.5	-17.5	1622.99
-18.5	-17.5	1614.22
-14.5	-17.5	1616.08
-10.5	-17.5	1617.54
-6.500000	-17.5	1609.25
-2.500000	-17.5	1615.04
1.500000	-17.5	1614.2
5.500000	-17.5	1609.09
9.500000	-17.5	1601.95
13.5	-17.5	1615.6
17.5	-17.5	1614.54
21.5	-17.5	1610.91
25.5	-17.5	1615.22
29.5	-17.5	1618.13
33.5	-17.5	1619.01
37.5	-17.5	1621.6
-25	-17	1628.76
-21	-17	1629.82
-17	-17	1613.43
-13	-17	1614.14
-9.000000	-17	1640
-5.000000	-17	1612.82
-1.000000	-17	1614.15
3.000000	-17	1613.12
7.000000	-17	1608.22
11	-17	1607.52
15	-17	1610.6
19	-17	1609.33
23	-17	1615.79
27	-17	1611.53
31	-17	1615.61
35	-17	1631.94
-27.5	-16.5	1612.3
-23.5	-16.5	1613.37
-19.5	-16.5	1611.39
-15.5	-16.5	1613.28
-11.5	-16.5	1613.56
-7.500000	-16.5	1612.79
-3.500000	-16.5	1613.93
0.500000	-16.5	1616.01
4.500000	-16.5	1605.49
8.500000	-16.5	1613.31
12.5	-16.5	1615.63
16.5	-16.5	1607.89
20.5	-16.5	1616.28
24.5	-16.5	1613.01
28.5	-16.5	1616.87
32.5	-16.5	1620.82
36.5	-16.5	1628.8
-26	-16	1616.99
-22	-16	1633.48
-18	-16	1611.89
-14	-16	1617.28
-10	-16	1614.71
-6.000000	-16	1604.62
-2.000000	-16	1614.15
2.000000	-16	1618.19
6.000000	-16	1610.86
10	-16	1608.59
14	-16	1613.55
18	-16	1615.27
22	-16	1615.76
26	-16	1611.66
30	-16	1616.73
34	-16	1640
38	-16	1600
-24.5	-15.5	1621.95
-20.5	-15.5	1620.5
-16.5	-15.5	1601.99
-12.5	-15.5	1612.99
-8.500000	-15.5	1611.18
-4.500000	-15.5	1608.78
-0.500000	-15.5	1600
3.500000	-15.5	1613.59
7.500000	-15.5	1607.59
11.5	-15.5	1611.88
15.5	-15.5	1614.27
19.5	-15.5	1616.94
23.5	-15.5	1622.76
27.5	-15.5	1616.05
31.5	-15.5	1618.81
35.5	-15.5	1616.04
-27	-15	1613.44
-23	-15	1622.64
-19	-15	1607.5
-15	-15	1608.34
-11	-15	1600
-7.000000	-15	1601.65
-3.000000	-15	1609.36
1.000000	-15	1616.19
5.000000	-15	1610.93
9.000000	-15	1606.34
13	-15	1616.2
17	-15	1614.29
21	-15	1618.03
25	-15	1625.12
29	-15	1614.57
33	-15	1600
37	-15	1616.59
-25.5	-14.5	1621.01
-21.5	-14.5	1601.19
-17.5	-14.5	1600
-13.5	-14.5	1600
-9.500000	-14.5	1611.41
-5.500000	-14.5	1609.77
-1.500000	-14.5	1611.42
2.500000	-14.5	1612.09
6.500000	-14.5	1614.06
10.5	-14.5	1617.94
14.5	-14.5	1615.79
18.5	-14.5	1613.1
22.5	-14.5	1601.85
26.5	-14.5	1618.22
30.5	-14.5	1614.78
34.5	-14.5	1600
-28	-14	1615.3
-24	-14	1631.36
-20	-14	1621.62
-16	-14	1605.02
-12	-14	1609.42
-8.000000	-14	1609.8
-4.000000	-14	1601.46
0.000000	-14	1613.54
4.000000	-14	1614.42
8.000000	-14	1608.49
12	-14	1611.74
16	-14	1611.59
20	-14	1618.51
24	-14	1614.36
28	-14	1614.76
32	-14	1610.55
36	-14	1613.72
-26.5	-13.5	1623.91
-22.5	-13.5	1621.6
-18.5	-13.5	1624.14
-14.5	-13.5	1613.19
-10.5	-13.5	1606.57
-6.500000	-13.5	1600.91
-2.500000	-13.5	1600
1.500000	-13.5	1612.35
5.500000	-13.5	1614.58
9.500000	-13.5	1617.21
13.5	-13.5	1606.67
17.5	-13.5	1608.23
21.5	-13.5	1622.26
25.5	-13.5	1600.11
29.5	-13.5	1600
33.5	-13.5	1605.87
37.5	-13.5	1615.87
-25	-13	1615.78
-21	-13	1613.67
-17	-13	1618.62
-13	-13	1608.46
-9.000000	-13	1602.53
-5.000000	-13	1604.57
-1.000000	-13	1615.07
3.000000	-13	1615.73
7.000000	-13	1614.52
11	-13	1618.93
15	-13	1615.14
19	-13	1620.92
23	-13	1612.9
27	-13	1613.82
31	-13	1611.12
35	-13	1601.54
-27.5	-12.5	1619.54
-23.5	-12.5	1600.09
-19.5	-12.5	1610.93
-15.5	-12.5	1604.53
-11.5	-12.5	1614.52
-7.500000	-12.5	1605.49
-3.500000	-12.5	1620.01
0.500000	-12.5	1616.2
4.500000	-12.5	1613.66
8.500000	-12.5	1618.42
12.5	-12.5	1626.54
16.5	-12.5	1610.82
20.5	-12.5	1617.63
24.5	-12.5	1600.57
28.5	-12.5	1610.82
32.5	-12.5	1621.01
36.5	-12.5	1614.39
-26	-12	1612.92
-22	-12	1617.39
-18	-12	1602.38
-14	-12	1602.26
-10	-12	1611.47
-6.000000	-12	1602.71
-2.000000	-12	1604.82
2.000000	-12	1614.74
6.000000	-12	1614.79
10	-12	1618.91
14	-12	1600
18	-12	1609.19
22	-12	1604.02
26	-12	1610.88
30	-12	1614.03
34	-12	1614.14
38	-12	1600
-24.5	-11.5	1611.84
-20.5	-11.5	1618.96
-16.5	-11.5	1605.24
-12.5	-11.5	1610.43
-8.500000	-11.5	1611.62
-4.500000	-11.5	1608.55
-0.500000	-11.5	1613.65
3.500000	-11.5	1612.6
7.500000	-11.5	1616.81
11.5	-11.5	1614.83
15.5	-11.5	1630.15
19.5	-11.5	1613.95
23.5	-11.5	1606.12
27.5	-11.5	1620.56
31.5	-11.5	1621.2
35.5	-11.5	1614.86
-27	-11	1618.5
-23	-11	1619.27
-19	-11	1600.28
-15	-11	1617.19
-11	-11	1613.66
-7.000000	-11	1611.02
-3.000000	-11	1602.27
1.000000	-11	1614.35
5.000000	-11	1614.64
9.000000	-11	1613.03
13	-11	1615.73
17	-11	1611.8
21	-11	1611.04
25	-11	1609.58
29	-11	1622.89
33	-11	1633.89
37	-11	1616.29
-25.5	-10.5	1605.47
-21.5	-10.5	1640
-17.5	-10.5	1603.96
-13.5	-10.5	1615.34
-9.500000	-10.5	1602.83
-5.500000	-10.5	1610.94
-1.500000	-10.5	1614.28
2.500000	-10.5	1614.29
6.500000	-10.5	1616.54
10.5	-10.5	1614.57
14.5	-10.5	1606.45
18.5	-10.5	1613.25
22.5	-10.5	1620.73
26.5	-10.5	1605.83
30.5	-10.5	1620.57
34.5	-10.5	1625.65
-28	-10	1617.04
-24	-10	1612.88
-20	-10	1610.9
-16	-10	1603.15
-12	-10	1615.46
-8.000000	-10	1610.05
-4.000000	-10	1607.56
0.000000	-10	1615.36
4.000000	-10	1614.14
8.000000	-10	1616.24
12	-10	1616.82
16	-10	1630.99
20	-10	1606.66
24	-10	1610.65
28	-10	1615.73
32	-10	1616.33
36	-10	1634.9
-26.5	-9.500000	1614.04
-22.5	-9.500000	1603
-18.5	-9.500000	1605.23
-14.5	-9.500000	1605.04
-10.5	-9.500000	1606.75
-6.500000	-9.500000	1614.04
-2.500000	-9.500000	1609.15
1.500000	-9.500000	1615.87
5.500000	-9.500000	1615.67
9.500000	-9.500000	1614.41
13.5	-9.500000	1617.93
17.5	-9.500000	1610.65
21.5	-9.500000	1617.68
25.5	-9.500000	1612.66
29.5	-9.500000	1608.29
33.5	-9.500000	1612.56
37.5	-9.500000	1616.31
-25	-9.000000	1631.49
-21	-9.000000	1609.09
-17	-9.000000	1601.47
-13	-9.000000	1605.86
-9.000000	-9.000000	1601.48
-5.000000	-9.000000	1616.3
-1.000000	-9.000000	1608.3
3.000000	-9.000000	1615.04
7.000000	-9.000000	1617.86
11	-9.000000	1613.24
15	-9.000000	1621.99
19	-9.000000	1617.6
23	-9.000000	1601.44
27	-9.000000	1614.66
31	-9.000000	1620.43
35	-9.000000	1616.62
-27.5	-8.500000	1614.94
-23.5	-8.500000	1600.67
-19.5	-8.500000	1614
-15.5	-8.500000	1610.66
-11.5	-8.500000	1616.4
-7.500000	-8.500000	1611.75
-3.500000	-8.500000	1611
0.500000	-8.500000	1612.69
4.500000	-8.500000	1614.4
8.500000	-8.500000	1616.12
12.5	-8.500000	1614.9
16.5	-8.500000	1615.17
20.5	-8.500000	1613.9
24.5	-8.500000	1608.46
28.5	-8.500000	1615.08
32.5	-8.500000	1612.21
36.5	-8.500000	1622.92
-26	-8.000000	1618.99
-22	-8.000000	1603.15
-18	-8.000000	1617.35
-14	-8.000000	1606.07
-10	-8.000000	1607.79
-6.000000	-8.000000	1612.9
-2.000000	-8.000000	1616.67
2.000000	-8.000000	1609.68
6.000000	-8.000000	1616.52
10	-8.000000	1613.01
14	-8.000000	1618.18
18	-8.000000	1613.72
22	-8.000000	1607.3
26	-8.000000	1614.14
30	-8.000000	1613.34
34	-8.000000	1612.34
38	-8.000000	1622.04
-24.5	-7.500000	1605.53
-20.5	-7.500000	1604.98
-16.5	-7.500000	1600.67
-12.5	-7.500000	1604.31
-8.500000	-7.500000	1611.44
-4.500000	-7.500000	1613.65
-0.500000	-7.500000	1610.55
3.500000	-7.500000	1615.42
7.500000	-7.500000	1617.8
11.5	-7.500000	1617.26
15.5	-7.500000	1613.61
19.5	-7.500000	1610.67
23.5	-7.500000	1612.93
27.5	-7.500000	1614.11
31.5	-7.500000	1617.46
35.5	-7.500000	1613.89
-27	-7.000000	1611.53
-23	-7.000000	1602.43
-19	-7.000000	1606.23
-15	-7.000000	1600.54
-11	-7.000000	1604.8
-7.000000	-7.000000	1609.87
-3.000000	-7.000000	1613.32
1.000000	-7.000000	1607.13
5.000000	-7.000000	1615.8
9.000000	-7.000000	1612.9
13	-7.000000	1614.19
17	-7.000000	1602.75
21	-7.000000	1611.93
25	-7.000000	1617.05
29	-7.000000	1616.7
33	-7.000000	1611.71
37	-7.000000	1613.79
-25.5	-6.500000	1600
-21.5	-6.500000	1606.96
-17.5	-6.500000	1600
-13.5	-6.500000	1601.63
-9.500000	-6.500000	1612.4
-5.500000	-6.500000	1611.83
-1.500000	-6.500000	1610.36
2.500000	-6.500000	1616.2
6.500000	-6.500000	1617.36
10.5	-6.500000	1615.76
14.5	-6.500000	1616.42
18.5	-6.500000	1606.75
22.5	-6.500000	1611.52
26.5	-6.500000	1600
30.5	-6.500000	1615.03
34.5	-6.500000	1613.72
-28	-6.000000	1609.18
-24	-6.000000	1602.24
-20	-6.000000	1600
-16	-6.000000	1600.11
-12	-6.000000	1606.57
-8.000000	-6.000000	1606.08
-4.000000	-6.000000	1610.66
0.000000	-6.000000	1611.57
4.000000	-6.000000	1613.96
8.000000	-6.000000	1612.47
12	-6.000000	1623.06
16	-6.000000	1614.13
20	-6.000000	1609.3
24	-6.000000	1604.66
28	-6.000000	1611.59
32	-6.000000	1609.92
36	-6.000000	1615.97
-26.5	-5.500000	1631.47
-22.5	-5.500000	1602.7
-18.5	-5.500000	1612.94
-14.5	-5.500000	1608.92
-10.5	-5.500000	1640
-6.500000	-5.500000	1616.87
-2.500000	-5.500000	1626.06
1.500000	-5.500000	1614.53
5.500000	-5.500000	1614.76
9.500000	-5.500000	1614.05
13.5	-5.500000	1613.22
17.5	-5.500000	1605.54
21.5	-5.500000	1605.67
25.5	-5.500000	1618.07
29.5	-5.500000	1600
33.5	-5.500000	1614.72
37.5	-5.500000	1614.27
-25	-5.000000	1605.07
-21	-5.000000	1607.56
-17	-5.000000	1612.64
-13	-5.000000	1605.3
-9.000000	-5.000000	1619.99
-5.000000	-5.000000	1608.27
-1.000000	-5.000000	1606.43
3.000000	-5.000000	1615.49
7.000000	-5.000000	1620.6
11	-5.000000	1608.98
15	-5.000000	1601.12
19	-5.000000	1600.51
23	-5.000000	1613.34
27	-5.000000	1615.79
31	-5.000000	1600
35	-5.000000	1613.67
-27.5	-4.500000	1612.88
-23.5	-4.500000	1603.35
-19.5	-4.500000	1610.31
-15.5	-4.500000	1614.88
-11.5	-4.500000	1616.81
-7.500000	-4.500000	1624.56
-3.500000	-4.500000	1600.21
0.500000	-4.500000	1615.38
4.500000	-4.500000	1615.14
8.500000	-4.500000	1611.95
12.5	-4.500000	1612.57
16.5	-4.500000	1602.42
20.5	-4.500000	1612.33
24.5	-4.500000	1610.49
28.5	-4.500000	1614.03
32.5	-4.500000	1618.91
36.5	-4.500000	1614.09
-26	-4.000000	1620.27
-22	-4.000000	1602.4
-18	-4.000000	1613.78
-14	-4.000000	1600
-10	-4.000000	1626.15
-6.000000	-4.000000	1600
-2.000000	-4.000000	1605.64
2.000000	-4.000000	1613.82
6.000000	-4.000000	1626.19
10	-4.000000	1615.34
14	-4.000000	1613.93
18	-4.000000	1612.68
22	-4.000000	1612.32
26	-4.000000	1616.37
30	-4.000000	1611.79
34	-4.000000	1615.23
38	-4.000000	1616.71
-24.5	-3.500000	1639.32
-20.5	-3.500000	1608.67
-16.5	-3.500000	1614.82
-12.5	-3.500000	1615.12
-8.500000	-3.500000	1622.27
-4.500000	-3.500000	1619.71
-0.500000	-3.500000	1614.42
3.500000	-3.500000	1618.34
7.500000	-3.500000	1611.32
11.5	-3.500000	1618.83
15.5	-3.500000	1612.99
19.5	-3.500000	1613.75
23.5	-3.500000	1613.73
27.5	-3.500000	1615.55
31.5	-3.500000	1619.4
35.5	-3.500000	1616.88
-27	-3.000000	1618.54
-23	-3.000000	1617.83
-19	-3.000000	1604.59
-15	-3.000000	1615.75
-11	-3.000000	1625.09
-7.000000	-3.000000	1627.01
-3.000000	-3.000000	1620.39
1.000000	-3.000000	1612.77
5.000000	-3.000000	1611.78
9.000000	-3.000000	1619.52
13	-3.000000	1616.34
17	-3.000000	1611.57
21	-3.000000	1613.8
25	-3.000000	1613.52
29	-3.000000	1613.52
33	-3.000000	1618.06
37	-3.000000	1611.87
-25.5	-2.500000	1620.66
-21.5	-2.500000	1613.6
-17.5	-2.500000	1617.41
-13.5	-2.500000	1618.02
-9.500000	-2.500000	1633.37
-5.500000	-2.500000	1620.76
-1.500000	-2.500000	1606.67
2.500000	-2.500000	1615.99
6.500000	-2.500000	1613.47
10.5	-2.500000	1607.19
14.5	-2.500000	1611.72
18.5	-2.500000	1617.81
22.5	-2.500000	1614.54
26.5	-2.500000	1618.05
30.5	-2.500000	1606.05
34.5	-2.500000	1613.39
-28	-2.000000	1617.91
-24	-2.000000	1624.27
-20	-2.000000	1633.11
-16	-2.000000	1617.48
-12	-2.000000	1610.28
-8.000000	-2.000000	1622.86
-4.000000	-2.000000	1607.06
0.000000	-2.000000	1617.87
4.000000	-2.000000	1619.99
8.000000	-2.000000	1616.66
12	-2.000000	1607.37
16	-2.000000	1610.33
20	-2.000000	1613.79
24	-2.000000	1612.56
28	-2.000000	1614.58
32	-2.000000	1617.93
36	-2.000000	1614.34
-26.5	-1.500000	1629.42
-22.5	-1.500000	1619.04
-18.5	-1.500000	1615.13
-14.5	-1.500000	1611.52
-10.5	-1.500000	1612.97
-6.500000	-1.500000	1626.73
-2.500000	-1.500000	1617.56
1.500000	-1.500000	1612.02
5.500000	-1.500000	1618.15
9.500000	-1.500000	1600
13.5	-1.500000	1600
17.5	-1.500000	1613.46
21.5	-1.500000	1617.74
25.5	-1.500000	1614.3
29.5	-1.500000	1615.35
33.5	-1.500000	1612.94
37.5	-1.500000	1611.88
-25	-1.000000	1626.63
-21	-1.000000	1619.22
-17	-1.000000	1619.34
-13	-1.000000	1602.9
-9.000000	-1.000000	1604.71
-5.000000	-1.000000	1622.18
-1.000000	-1.000000	1607.03
3.000000	-1.000000	1626.35
7.000000	-1.000000	1607.95
11	-1.000000	1605.39
15	-1.000000	1615.41
19	-1.000000	1612.66
23	-1.000000	1611.64
27	-1.000000	1617.32
31	-1.000000	1616.31
35	-1.000000	1616.22
-27.5	-0.500000	1619.5
-23.5	-0.500000	1620.53
-19.5	-0.500000	1616.6
-15.5	-0.500000	1618.82
-11.5	-0.500000	1610.43
-7.500000	-0.500000	1616.47
-3.500000	-0.500000	1620.11
0.500000	-0.500000	1613.68
4.500000	-0.500000	1619.21
8.500000	-0.500000	1603.85
12.5	-0.500000	1616.31
16.5	-0.500000	1614.42
20.5	-0.500000	1611.49
24.5	-0.500000	1617.43
28.5	-0.500000	1611.08
32.5	-0.500000	1621.76
36.5	-0.500000	1619.47
-26	0.000000	1617.12
-22	0.000000	1618.72
-18	0.000000	1616.82
-14	0.000000	1612.37
-10	0.000000	1606.17
-6.000000	0.000000	1600
-2.000000	0.000000	1600.65
2.000000	0.000000	1607.34
6.000000	0.000000	1617.36
10	0.000000	1610.56
14	0.000000	1616.4
18	0.000000	1608.44
22	0.000000	1615.62
26	0.000000	1615.13
30	0.000000	1609.24
34	0.000000	1631.83
38	0.000000	1611.5
-24.5	0.500000	1615.1
-20.5	0.500000	1605.07
-16.5	0.500000	1617.71
-12.5	0.500000	1610.23
-8.500000	0.500000	1606.07
-4.500000	0.500000	1619.14
-0.500000	0.500000	1611.5
3.500000	0.500000	1612.5
7.500000	0.500000	1615.77
11.5	0.500000	1616.82
15.5	0.500000	1611.18
19.5	0.500000	1616.33
23.5	0.500000	1614.17
27.5	0.500000	1611.34
31.5	0.500000	1621.7
35.5	0.500000	1608.76
-27	1.000000	1614.82
-23	1.000000	1613.23
-19	1.000000	1614.06
-15	1.000000	1616.95
-11	1.000000	1610.49
-7.000000	1.000000	1617.55
-3.000000	1.000000	1611.6
1.000000	1.000000	1604.69
5.000000	1.000000	1615.52
9.000000	1.000000	1613.85
13	1.000000	1613.32
17	1.000000	1609.48
21	1.000000	1613.29
25	1.000000	1609.62
29	1.000000	1605.01
33	1.000000	1619.54
37	1.000000	1611.31
-25.5	1.500000	1614.64
-21.5	1.500000	1611.37
-17.5	1.500000	1617.11
-13.5	1.500000	1612.24
-9.500000	1.500000	1612.28
-5.500000	1.500000	1619.08
-1.500000	1.500000	1618.34
2.500000	1.500000	1613.35
6.500000	1.500000	1616.15
10.5	1.500000	1611.77
14.5	1.500000	1614.58
18.5	1.500000	1614.69
22.5	1.500000	1616.23
26.5	1.500000	1609.9
30.5	1.500000	1611.32
34.5	1.500000	1622.25
-28	2.000000	1616.31
-24	2.000000	1616.65
-20	2.000000	1612.56
-16	2.000000	1615.23
-12	2.000000	1603.02
-8.000000	2.000000	1613.61
-4.000000	2.000000	1614.7
0.000000	2.000000	1617.09
4.000000	2.000000	1608.97
8.000000	2.000000	1616.88
12	2.000000	1613.8
16	2.000000	1603.54
20	2.000000	1614.46
24	2.000000	1616.63
28	2.000000	1615.56
32	2.000000	1618.43
36	2.000000	1619.01
-26.5	2.500000	1615.58
-22.5	2.500000	1613.42
-18.5	2.500000	1608.87
-14.5	2.500000	1613.03
-10.5	2.500000	1612.63
-6.500000	2.500000	1616.96
-2.500000	2.500000	1619.29
1.500000	2.500000	1612.92
5.500000	2.500000	1612.24
9.500000	2.500000	1614.84
13.5	2.500000	1616.73
17.5	2.500000	1613.61
21.5	2.500000	1616.56
25.5	2.500000	1618.08
29.5	2.500000	1613.66
33.5	2.500000	1621.17
37.5	2.500000	1623.75
-25	3.000000	1614.06
-21	3.000000	1616.97
-17	3.000000	1613.55
-13	3.000000	1606.89
-9.000000	3.000000	1616.84
-5.000000	3.000000	1621.8
-1.000000	3.000000	1613.74
3.000000	3.000000	1609.85
7.000000	3.000000	1615.68
11	3.000000	1608.54
15	3.000000	1613.59
19	3.000000	1603.34
23	3.000000	1607.08
27	3.000000	1603.84
31	3.000000	1612.49
35	3.000000	1627.4
-27.5	3.500000	1615.54
-23.5	3.500000	1615.49
-19.5	3.500000	1608.82
-15.5	3.500000	1614.83
-11.5	3.500000	1616.11
-7.500000	3.500000	1616.9
-3.500000	3.500000	1614.14
0.500000	3.500000	1613.38
4.500000	3.500000	1613.02
8.500000	3.500000	1618.36
12.5	3.500000	1601.76
16.5	3.500000	1600.67
20.5	3.500000	1614.01
24.5	3.500000	1616
28.5	3.500000	1615.16
32.5	3.500000	1619.77
36.5	3.500000	1616.81
-26	4.000000	1617.15
-22	4.000000	1616.38
-18	4.000000	1611.27
-14	4.000000	1613.6
-10	4.000000	1615.79
-6.000000	4.000000	1617.33
-2.000000	4.000000	1615.17
2.000000	4.000000	1610.09
6.000000	4.000000	1617.78
10	4.000000	1618
14	4.000000	1608.37
18	4.000000	1616.85
22	4.000000	1600
26	4.000000	1612.74
30	4.000000	1613.81
34	4.000000	1612.36
38	4.000000	1613.02
-24.5	4.500000	1616.69
-20.5	4.500000	1600
-16.5	4.500000	1613.12
-12.5	4.500000	1611.6
-8.500000	4.500000	1616.63
-4.500000	4.500000	1615.98
-0.500000	4.500000	1618.77
3.500000	4.500000	1611.18
7.500000	4.500000	1617.97
11.5	4.500000	1607.98
15.5	4.500000	1604.07
19.5	4.500000	1611.57
23.5	4.500000	1616.22
27.5	4.500000	1614.6
31.5	4.500000	1624.06
35.5	4.500000	1602.64
-27	5.000000	1612.85
-23	5.000000	1613.51
-19	5.000000	1616.05
-15	5.000000	1613.47
-11	5.000000	1611.61
-7.000000	5.000000	1617.05
-3.000000	5.000000	1618.61
1.000000	5.000000	1612.7
5.000000	5.000000	1608.25
9.000000	5.000000	1616.01
13	5.000000	1605.26
17	5.000000	1611.79
21	5.000000	1613.89
25	5.000000	1613.15
29	5.000000	1615.06
33	5.000000	1617.06
37	5.000000	1613.46
-25.5	5.500000	1616.21
-21.5	5.500000	1615.04
-17.5	5.500000	1615.93
-13.5	5.500000	1607.93
-9.500000	5.500000	1604.42
-5.500000	5.500000	1611.99
-1.500000	5.500000	1615.5
2.500000	5.500000	1613.01
6.500000	5.500000	1612.47
10.5	5.500000	1617.05
14.5	5.500000	1604.18
18.5	5.500000	1612.8
22.5	5.500000	1611.25
26.5	5.500000	1616.56
30.5	5.500000	1616.89
34.5	5.500000	1615.1
-28	6.000000	1615.55
-24	6.000000	1617.18
-20	6.000000	1614.1
-16	6.000000	1607.38
-12	6.000000	1612
-8.000000	6.000000	1612.07
-4.000000	6.000000	1617.16
0.000000	6.000000	1618.77
4.000000	6.000000	1611.99
8.000000	6.000000	1614.84
12	6.000000	1617.58
16	6.000000	1612.36
20	6.000000	1614.74
24	6.000000	1616.72
28	6.000000	1613.09
32	6.000000	1615.61
36	6.000000	1616.89
-26.5	6.500000	1612.32
-22.5	6.500000	1613.86
-18.5	6.500000	1616.22
-14.5	6.500000	1606.77
-10.5	6.500000	1613.6
-6.500000	6.500000	1610.86
-2.500000	6.500000	1616.38
1.500000	6.500000	1614.19
5.500000	6.500000	1615.41
9.500000	6.500000	1613.59
13.5	6.500000	1612.41
17.5	6.500000	1612.31
21.5	6.500000	1618.56
25.5	6.500000	1618.21
29.5	6.500000	1616.03
33.5	6.500000	1615.3
37.5	6.500000	1613.62
-25	7.000000	1630.48
-21	7.000000	1614.66
-17	7.000000	1616.57
-13	7.000000	1612.83
-9.000000	7.000000	1602.3
-5.000000	7.000000	1615.64
-1.000000	7.000000	1616.01
3.000000	7.000000	1616.19
7.000000	7.000000	1617.33
11	7.000000	1614.86
15	7.000000	1615.02
19	7.000000	1613.07
23	7.000000	1617.22
27	7.000000	1616.31
31	7.000000	1615.77
35	7.000000	1618.06
-27.5	7.500000	1618.64
-23.5	7.500000	1619.26
-19.5	7.500000	1612.21
-15.5	7.500000	1614.57
-11.5	7.500000	1610.79
-7.500000	7.500000	1607.13
-3.500000	7.500000	1618.35
0.500000	7.500000	1613.7
4.500000	7.500000	1612.21
8.500000	7.500000	1616.62
12.5	7.500000	1606.95
16.5	7.500000	1603.91
20.5	7.500000	1618.37
24.5	7.500000	1614.94
28.5	7.500000	1600
32.5	7.500000	1615.29
36.5	7.500000	1613.96
-26	8.000000	1614.83
-22	8.000000	1610.8
-18	8.000000	1616.58
-14	8.000000	1605.64
-10	8.000000	1611.05
-6.000000	8.000000	1611.04
-2.000000	8.000000	1616.04
2.000000	8.000000	1607.13
6.000000	8.000000	1616.26
10	8.000000	1616.48
14	8.000000	1611.55
18	8.000000	1614.18
22	8.000000	1616.38
26	8.000000	1616.14
30	8.000000	1615.38
34	8.000000	1616.61
38	8.000000	1611.4
-24.5	8.500000	1619.2
-20.5	8.500000	1612.96
-16.5	8.500000	1615.67
-12.5	8.500000	1609.34
-8.500000	8.500000	1610.9
-4.500000	8.500000	1609.35
-0.500000	8.500000	1607.99
3.500000	8.500000	1612.23
7.500000	8.500000	1618.76
11.5	8.500000	1605.77
15.5	8.500000	1614.66
19.5	8.500000	1606.98
23.5	8.500000	1613.72
27.5	8.500000	1616.92
31.5	8.500000	1615.15
35.5	8.500000	1615.08
-27	9.000000	1613.74
-23	9.000000	1616.57
-19	9.000000	1616.04
-15	9.000000	1606.18
-11	9.000000	1607.94
-7.000000	9.000000	1608.38
-3.000000	9.000000	1609.37
1.000000	9.000000	1614.92
5.000000	9.000000	1610.34
9.000000	9.000000	1617.13
13	9.000000	1612.39
17	9.000000	1611.83
21	9.000000	1614.98
25	9.000000	1615.75
29	9.000000	1616.17
33	9.000000	1615.71
37	9.000000	1606.47
-25.5	9.500000	1620.55
-21.5	9.500000	1614.89
-17.5	9.500000	1613.08
-13.5	9.500000	1608.19
-9.500000	9.500000	1600
-5.500000	9.500000	1607.33
-1.500000	9.500000	1624.46
2.500000	9.500000	1612.13
6.500000	9.500000	1616.56
10.5	9.500000	1614.78
14.5	9.500000	1612.84
18.5	9.500000	1616.26
22.5	9.500000	1611.92
26.5	9.500000	1615.08
30.5	9.500000	1615.15
34.5	9.500000	1616.13
-28	10	1600
-24	10	1606.2
-20	10	1617.24
-16	10	1614.5
-12	10	1608.27
-8.000000	10	1609.64
-4.000000	10	1612.53
0.000000	10	1637.09
4.000000	10	1618.78
8.000000	10	1615.63
12	10	1614.94
16	10	1614.03
20	10	1612.23
24	10	1617.41
28	10	1614.23
32	10	1616.27
36	10	1608.45
-26.5	10.5	1600
-22.5	10.5	1614.88
-18.5	10.5	1617.71
-14.5	10.5	1609.93
-10.5	10.5	1606.64
-6.500000	10.5	1600
-2.500000	10.5	1602.97
1.500000	10.5	1617.17
5.500000	10.5	1629.54
9.500000	10.5	1617.82
13.5	10.5	1609.61
17.5	10.5	1613.74
21.5	10.5	1608.39
25.5	10.5	1616.11
29.5	10.5	1615.71
33.5	10.5	1615.16
37.5	10.5	1609.5
-25	11	1621.52
-21	11	1614.59
-17	11	1606.38
-13	11	1610.32
-9.000000	11	1614.34
-5.000000	11	1600.14
-1.000000	11	1609.39
3.000000	11	1612.76
7.000000	11	1614.63
11	11	1616.22
15	11	1612.29
19	11	1616.32
23	11	1616.94
27	11	1611.43
31	11	1614.12
35	11	1613.63
-27.5	11.5	1619.77
-23.5	11.5	1627.71
-19.5	11.5	1617.84
-15.5	11.5	1614.29
-11.5	11.5	1606.96
-7.500000	11.5	1611.17
-3.500000	11.5	1605.89
0.500000	11.5	1615.55
4.500000	11.5	1600.09
8.500000	11.5	1607.47
12.5	11.5	1606.8
16.5	11.5	1609.74
20.5	11.5	1614.84
24.5	11.5	1616.45
28.5	11.5	1614.97
32.5	11.5	1612.99
36.5	11.5	1613.64
-26	12	1618.71
-22	12	1610.76
-18	12	1619.63
-14	12	1603.55
-10	12	1604.57
-6.000000	12	1609.82
-2.000000	12	1602.3
2.000000	12	1615.54
6.000000	12	1626.35
10	12	1616.83
14	12	1605.81
18	12	1613.97
22	12	1616.72
26	12	1608.34
30	12	1607.71
34	12	1615.49
38	12	1610.78
-24.5	12.5	1619.27
-20.5	12.5	1619.28
-16.5	12.5	1620
-12.5	12.5	1611.72
-8.500000	12.5	1611.77
-4.500000	12.5	1612.1
-0.500000	12.5	1611.37
3.500000	12.5	1625.53
7.500000	12.5	1600.59
11.5	12.5	1616.28
15.5	12.5	1611.11
19.5	12.5	1617.26
23.5	12.5	1612.07
27.5	12.5	1609.06
31.5	12.5	1612.11
35.5	12.5	1614.7
-27	13	1618.8
-23	13	1619.17
-19	13	1619.57
-15	13	1633.71
-11	13	1616.22
-7.000000	13	1612.91
-3.000000	13	1606.78
1.000000	13	1614.56
5.000000	13	1620.2
9.000000	13	1616.56
13	13	1600.19
17	13	1610.3
21	13	1616.62
25	13	1616.49
29	13	1610.79
33	13	1615.26
37	13	1609.47
-25.5	13.5	1618.8
-21.5	13.5	1629.04
-17.5	13.5	1619.63
-13.5	13.5	1625.15
-9.500000	13.5	1613.32
-5.500000	13.5	1610.21
-1.500000	13.5	1615.66
2.500000	13.5	1611.62
6.500000	13.5	1639.67
10.5	13.5	1600
14.5	13.5	1613.05
18.5	13.5	1615.79
22.5	13.5	1603.52
26.5	13.5	1613.22
30.5	13.5	1601.55
34.5	13.5	1615.36
-28	14	1622
-24	14	1611.03
-20	14	1621.06
-16	14	1600
-12	14	1612.38
-8.000000	14	1614.54
-4.000000	14	1600.61
0.000000	14	1614.3
4.000000	14	1640
8.000000	14	1624.34
12	14	1615.86
16	14	1611.29
20	14	1616.81
24	14	1613.55
28	14	1610.51
32	14	1610.84
36	14	1616.46
-26.5	14.5	1618.93
-22.5	14.5	1600
-18.5	14.5	1617.16
-14.5	14.5	1619.23
-10.5	14.5	1615.12
-6.500000	14.5	1610.18
-2.500000	14.5	1612.39
1.500000	14.5	1604.67
5.500000	14.5	1621.56
9.500000	14.5	1614.67
13.5	14.5	1617.68
17.5	14.5	1609.75
21.5	14.5	1610.09
25.5	14.5	1614.82
29.5	14.5	1610.6
33.5	14.5	1615.5
37.5	14.5	1605.01
-25	15	1600
-21	15	1621.76
-17	15	1622.71
-13	15	1600
-9.000000	15	1616.08
-5.000000	15	1620.41
-1.000000	15	1606.78
3.000000	15	1617.62
7.000000	15	1622.65
11	15	1616.37
15	15	1601.15
19	15	1613.61
23	15	1611.3
27	15	1605.01
31	15	1615.21
35	15	1615.92
-27.5	15.5	1621.13
-23.5	15.5	1613.26
-19.5	15.5	1619.47
-15.5	15.5	1619.19
-11.5	15.5	1618.83
-7.500000	15.5	1615.26
-3.500000	15.5	1621.68
0.500000	15.5	1617.44
4.500000	15.5	1616.75
8.500000	15.5	1611.52
12.5	15.5	1616.79
16.5	15.5	1618.53
20.5	15.5	1613.8
24.5	15.5	1613.07
28.5	15.5	1606.37
32.5	15.5	1604.71
36.5	15.5	1616.6
-26	16	1617.65
-22	16	1621.37
-18	16	1620.04
-14	16	1614.31
-10	16	1611.59
-6.000000	16	1619.5
-2.000000	16	1616.25
2.000000	16	1615.4
6.000000	16	1605.01
10	16	1611.62
14	16	1616.04
18	16	1607.22
22	16	1614.49
26	16	1602.09
30	16	1611.47
34	16	1612.02
38	16	1616.09
-24.5	16.5	1619.15
-20.5	16.5	1619.55
-16.5	16.5	1621.88
-12.5	16.5	1612.76
-8.500000	16.5	1611.61
-4.500000	16.5	1640
-0.500000	16.5	1621.62
3.500000	16.5	1613.89
7.500000	16.5	1619.69
11.5	16.5	1616.8
15.5	16.5	1606.76
19.5	16.5	1617.79
23.5	16.5	1610.58
27.5	16.5	1605.52
31.5	16.5	1621.24
35.5	16.5	1605.9
-27	17	1623.18
-23	17	1610.64
-19	17	1620.01
-15	17	1608.85
-11	17	1614.14
-7.000000	17	1614.39
-3.000000	17	1625.14
1.000000	17	1616.13
5.000000	17	1617.12
9.000000	17	1614.37
13	17	1616.2
17	17	1608.02
21	17	1616.1
25	17	1609.07
29	17	1604.46
33	17	1611.17
37	17	1625.34
-25.5	17.5	1625.73
-21.5	17.5	1624.71
-17.5	17.5	1619.79
-13.5	17.5	1615.61
-9.500000	17.5	1617.25
-5.500000	17.5	1619.74
-1.500000	17.5	1614.05
2.500000	17.5	1612.6
6.500000	17.5	1621.54
10.5	17.5	1616.75
14.5	17.5	1618.65
18.5	17.5	1616.37
22.5	17.5	1611.57
26.5	17.5	1608.41
30.5	17.5	1623.98
34.5	17.5	1608.92
-28	18	1634.73
-24	18	1620.81
-20	18	1628.72
-16	18	1629.78
-12	18	1608.02
-8.000000	18	1611.99
-4.000000	18	1600
0.000000	18	1620.08
4.000000	18	1615.08
8.000000	18	1617.77
12	18	1610.97
16	18	1616.13
20	18	1616.98
24	18	1600.22
28	18	1600
32	18	1640
36	18	1619.42
-26.5	18.5	1618.59
-22.5	18.5	1616.73
-18.5	18.5	1616.5
-14.5	18.5	1613.41
-10.5	18.5	1613.9
-6.500000	18.5	1616.5
-2.500000	18.5	1640
1.500000	18.5	1615.85
5.500000	18.5	1621.97
9.500000	18.5	1615.64
13.5	18.5	1613.61
17.5	18.5	1603.87
21.5	18.5	1612.16
25.5	18.5	1617.11
29.5	18.5	1618.07
33.5	18.5	1612.77
37.5	18.5	1619.8
-25	19	1619.83
-21	19	1621.7
-17	19	1620.45
-13	19	1616.93
-9.000000	19	1614.12
-5.000000	19	1619.26
-1.000000	19	1611.73
3.000000	19	1615.05
7.000000	19	1621.68
11	19	1615.76
15	19	1615.44
19	19	1616.9
23	19	1611.74
27	19	1600
31	19	1624.69
35	19	1620.16
-27.5	19.5	1618.59
-23.5	19.5	1621.34
-19.5	19.5	1612.02
-15.5	19.5	1640
-11.5	19.5	1617.34
-7.500000	19.5	1612.05
-3.500000	19.5	1609.65
0.500000	19.5	1616.46
4.500000	19.5	1611.65
8.500000	19.5	1616.4
12.5	19.5	1611.67
16.5	19.5	1617.5
20.5	19.5	1614.54
24.5	19.5	1616.26
28.5	19.5	1617.46
32.5	19.5	1609.92
36.5	19.5	1621.4
-26	20	1610.59
-22	20	1607.99
-18	20	1620.7
-14	20	1638.59
-10	20	1614.3
-6.000000	20	1616.11
-2.000000	20	1606.54
2.000000	20	1615.16
6.000000	20	1616.86
10	20	1617.6
14	20	1610.59
18	20	1616.46
22	20	1613.02
26	20	1619.99
30	20	1618.6
34	20	1608.27
38	20	1615.51