File: data/derived_data/raman/20170920_Gr-NH2_for_Radisurf/20170920 Gr-NH for Radisurf map 1/G FWHM.txt
#XList		#YList		#IList
-28	-22	50.0009
-24	-22	64.7841
-20	-22	65.5572
-16	-22	73.9003
-12	-22	51.8182
-8.000000	-22	64.229
-4.000000	-22	65.1524
0.000000	-22	52.1623
4.000000	-22	61.3332
8.000000	-22	55.4319
12	-22	67.4973
16	-22	59.4889
20	-22	63.838
24	-22	70.2874
28	-22	60.9513
32	-22	29.9815
36	-22	136.49
-26.5	-21.5	4.571680
-22.5	-21.5	66.9465
-18.5	-21.5	57.6409
-14.5	-21.5	51.7204
-10.5	-21.5	65.0099
-6.500000	-21.5	66.2475
-2.500000	-21.5	57.6688
1.500000	-21.5	63.9356
5.500000	-21.5	64.6058
9.500000	-21.5	62.0559
13.5	-21.5	61.4944
17.5	-21.5	61.2854
21.5	-21.5	61.0262
25.5	-21.5	73.9939
29.5	-21.5	19.3219
33.5	-21.5	126.46
37.5	-21.5	470.919
-25	-21	69.3069
-21	-21	66.0038
-17	-21	58.7715
-13	-21	61.4474
-9.000000	-21	67.4979
-5.000000	-21	57.1036
-1.000000	-21	51.4102
3.000000	-21	49.8914
7.000000	-21	69.9561
11	-21	61.9949
15	-21	60.0593
19	-21	58.6463
23	-21	55.0375
27	-21	66.8925
31	-21	15.7228
35	-21	308.577
-27.5	-20.5	0.639823
-23.5	-20.5	63.696
-19.5	-20.5	63.0096
-15.5	-20.5	62.6284
-11.5	-20.5	43.3111
-7.500000	-20.5	64.0415
-3.500000	-20.5	46.2621
0.500000	-20.5	47.2538
4.500000	-20.5	57.4131
8.500000	-20.5	58.407
12.5	-20.5	66.4268
16.5	-20.5	58.0789
20.5	-20.5	52.4014
24.5	-20.5	50.774
28.5	-20.5	30.5203
32.5	-20.5	28.0425
36.5	-20.5	0.639823
-26	-20	84.6058
-22	-20	55.0504
-18	-20	66.4841
-14	-20	66.1957
-10	-20	69.3143
-6.000000	-20	60.3989
-2.000000	-20	72.5225
2.000000	-20	45.8239
6.000000	-20	57.9073
10	-20	58.7197
14	-20	58.5562
18	-20	66.4286
22	-20	54.3767
26	-20	72.3773
30	-20	15.3055
34	-20	16.9043
38	-20	10.6978
-24.5	-19.5	66.6485
-20.5	-19.5	68.62
-16.5	-19.5	69.3693
-12.5	-19.5	56.1925
-8.500000	-19.5	62.3796
-4.500000	-19.5	66.6625
-0.500000	-19.5	51.1064
3.500000	-19.5	31.4175
7.500000	-19.5	64.8396
11.5	-19.5	63.3779
15.5	-19.5	57.2149
19.5	-19.5	55.8003
23.5	-19.5	66.7874
27.5	-19.5	21.2893
31.5	-19.5	28.8754
35.5	-19.5	222.715
-27	-19	2.088641
-23	-19	68.007
-19	-19	72.6899
-15	-19	37.2796
-11	-19	61.7122
-7.000000	-19	52.1304
-3.000000	-19	63.2538
1.000000	-19	66.9811
5.000000	-19	61.0691
9.000000	-19	65.3316
13	-19	59.3047
17	-19	67.5037
21	-19	50.5318
25	-19	69.2668
29	-19	30.8495
33	-19	2595.12
37	-19	1.313390
-25.5	-18.5	146.789
-21.5	-18.5	69.7386
-17.5	-18.5	61.6746
-13.5	-18.5	68.6393
-9.500000	-18.5	77.3028
-5.500000	-18.5	65.1086
-1.500000	-18.5	45.6017
2.500000	-18.5	23.6689
6.500000	-18.5	52.4485
10.5	-18.5	61.7476
14.5	-18.5	53.7245
18.5	-18.5	65.4835
22.5	-18.5	57.5862
26.5	-18.5	67.9418
30.5	-18.5	37.4423
34.5	-18.5	9.948919
-28	-18	46.5545
-24	-18	60.071
-20	-18	62.3484
-16	-18	43.196
-12	-18	32.6629
-8.000000	-18	72.2846
-4.000000	-18	60.1281
0.000000	-18	38.7866
4.000000	-18	43.6288
8.000000	-18	61.9622
12	-18	65.3901
16	-18	69.1078
20	-18	63.8128
24	-18	50.3487
28	-18	56.2011
32	-18	35.9273
36	-18	95.5712
-26.5	-17.5	30.9279
-22.5	-17.5	209.484
-18.5	-17.5	22.219
-14.5	-17.5	47.5852
-10.5	-17.5	61.0589
-6.500000	-17.5	103.41
-2.500000	-17.5	36.8268
1.500000	-17.5	51.7134
5.500000	-17.5	64.0309
9.500000	-17.5	64.0097
13.5	-17.5	61.0517
17.5	-17.5	62.8478
21.5	-17.5	62.1781
25.5	-17.5	49.5804
29.5	-17.5	57.5768
33.5	-17.5	16.7677
37.5	-17.5	31.6796
-25	-17	173.982
-21	-17	67.705
-17	-17	29.3713
-13	-17	32.0977
-9.000000	-17	54.8812
-5.000000	-17	66.414
-1.000000	-17	25.9548
3.000000	-17	21.3424
7.000000	-17	62.9228
11	-17	64.9494
15	-17	60.6257
19	-17	54.784
23	-17	64.5567
27	-17	58.0263
31	-17	31.7249
35	-17	3.949908
-27.5	-16.5	27.8957
-23.5	-16.5	124.194
-19.5	-16.5	63.8517
-15.5	-16.5	33.4227
-11.5	-16.5	59.8481
-7.500000	-16.5	67.4564
-3.500000	-16.5	56.9841
0.500000	-16.5	22.2964
4.500000	-16.5	67.8075
8.500000	-16.5	70.266
12.5	-16.5	67.4385
16.5	-16.5	60.4157
20.5	-16.5	48.861
24.5	-16.5	49.1775
28.5	-16.5	54.4751
32.5	-16.5	56.6708
36.5	-16.5	59.9571
-26	-16	33.527
-22	-16	2.430963
-18	-16	54.1973
-14	-16	47.683
-10	-16	45.1776
-6.000000	-16	64.5348
-2.000000	-16	27.0836
2.000000	-16	54.9539
6.000000	-16	63.7698
10	-16	67.2213
14	-16	59.912
18	-16	62.2179
22	-16	52.5862
26	-16	54.6471
30	-16	30.0557
34	-16	102.628
38	-16	13.1138
-24.5	-15.5	0.639823
-20.5	-15.5	64.2007
-16.5	-15.5	66.5427
-12.5	-15.5	62.5452
-8.500000	-15.5	63.0272
-4.500000	-15.5	61.5669
-0.500000	-15.5	15.9209
3.500000	-15.5	52.1134
7.500000	-15.5	66.2337
11.5	-15.5	62.6897
15.5	-15.5	59.6668
19.5	-15.5	46.2102
23.5	-15.5	69.9219
27.5	-15.5	30.981
31.5	-15.5	34.3411
35.5	-15.5	47.2685
-27	-15	31.8537
-23	-15	2.536121
-19	-15	57.8172
-15	-15	60.0604
-11	-15	68.5938
-7.000000	-15	61.337
-3.000000	-15	59.835
1.000000	-15	35.3688
5.000000	-15	59.9616
9.000000	-15	65.4365
13	-15	60.8424
17	-15	61.0291
21	-15	60.4532
25	-15	57.8837
29	-15	22.533
33	-15	25.4993
37	-15	40.5425
-25.5	-14.5	54.0744
-21.5	-14.5	31.2824
-17.5	-14.5	70.2507
-13.5	-14.5	76.6434
-9.500000	-14.5	58.6108
-5.500000	-14.5	68.4478
-1.500000	-14.5	45.0005
2.500000	-14.5	46.5743
6.500000	-14.5	53.2606
10.5	-14.5	58.9245
14.5	-14.5	58.1728
18.5	-14.5	65.1876
22.5	-14.5	141.508
26.5	-14.5	45.127
30.5	-14.5	27.7051
34.5	-14.5	16.3354
-28	-14	37.9087
-24	-14	1472.87
-20	-14	54.0033
-16	-14	68.1344
-12	-14	59.342
-8.000000	-14	65.1299
-4.000000	-14	67.5051
0.000000	-14	30.1955
4.000000	-14	51.7876
8.000000	-14	65.3696
12	-14	63.1527
16	-14	62.0652
20	-14	62.3519
24	-14	60.8901
28	-14	24.6604
32	-14	66.7779
36	-14	51.7434
-26.5	-13.5	81.5324
-22.5	-13.5	7.413511
-18.5	-13.5	74.0093
-14.5	-13.5	51.9809
-10.5	-13.5	75.3051
-6.500000	-13.5	66.0979
-2.500000	-13.5	66.8
1.500000	-13.5	48.8205
5.500000	-13.5	57.0942
9.500000	-13.5	62.3578
13.5	-13.5	65.907
17.5	-13.5	57.7192
21.5	-13.5	25.164
25.5	-13.5	103.45
29.5	-13.5	16.9558
33.5	-13.5	22.3192
37.5	-13.5	25.7027
-25	-13	75.2306
-21	-13	25.3693
-17	-13	74.9335
-13	-13	58.2518
-9.000000	-13	67.2394
-5.000000	-13	67.0375
-1.000000	-13	50.7815
3.000000	-13	43.3922
7.000000	-13	46.9329
11	-13	59.8238
15	-13	64.4925
19	-13	63.5548
23	-13	64.1658
27	-13	38.6741
31	-13	26.157
35	-13	22.8817
-27.5	-12.5	63.7299
-23.5	-12.5	571.049
-19.5	-12.5	70.0563
-15.5	-12.5	66.5272
-11.5	-12.5	60.4543
-7.500000	-12.5	64.736
-3.500000	-12.5	75.6073
0.500000	-12.5	46.3444
4.500000	-12.5	46.678
8.500000	-12.5	44.2427
12.5	-12.5	64.2574
16.5	-12.5	57.2626
20.5	-12.5	58.2968
24.5	-12.5	68.9896
28.5	-12.5	22.4492
32.5	-12.5	24.0025
36.5	-12.5	26.1067
-26	-12	63.0121
-22	-12	2595.12
-18	-12	70.9867
-14	-12	64.9136
-10	-12	62.0602
-6.000000	-12	66.6323
-2.000000	-12	66.3872
2.000000	-12	48.5408
6.000000	-12	45.3362
10	-12	49.3517
14	-12	54.8839
18	-12	56.3033
22	-12	106.574
26	-12	73.8873
30	-12	52.2164
34	-12	20.5829
38	-12	14.6817
-24.5	-11.5	23.0125
-20.5	-11.5	93.4708
-16.5	-11.5	65.3932
-12.5	-11.5	64.873
-8.500000	-11.5	63.892
-4.500000	-11.5	62.5642
-0.500000	-11.5	47.1911
3.500000	-11.5	54.5266
7.500000	-11.5	48.4379
11.5	-11.5	20.3636
15.5	-11.5	46.4972
19.5	-11.5	61.8741
23.5	-11.5	64.8404
27.5	-11.5	45.7514
31.5	-11.5	90.9334
35.5	-11.5	23.5755
-27	-11	58.1994
-23	-11	42.7091
-19	-11	69.306
-15	-11	72.8388
-11	-11	35.9978
-7.000000	-11	66.9335
-3.000000	-11	67.204
1.000000	-11	44.4604
5.000000	-11	53.5247
9.000000	-11	24.896
13	-11	448.839
17	-11	59.7451
21	-11	63.9732
25	-11	64.8875
29	-11	55.2108
33	-11	24.2027
37	-11	16.7678
-25.5	-10.5	93.8203
-21.5	-10.5	63.882
-17.5	-10.5	69.1881
-13.5	-10.5	55.4675
-9.500000	-10.5	63.9917
-5.500000	-10.5	66.3087
-1.500000	-10.5	68.1117
2.500000	-10.5	49.8151
6.500000	-10.5	39.4279
10.5	-10.5	32.196
14.5	-10.5	1631.57
18.5	-10.5	55.1141
22.5	-10.5	74.1356
26.5	-10.5	72.4296
30.5	-10.5	62.9536
34.5	-10.5	33.2902
-28	-10	56.1827
-24	-10	89.9219
-20	-10	69.4943
-16	-10	66.5411
-12	-10	36.9463
-8.000000	-10	63.2816
-4.000000	-10	70.3892
0.000000	-10	59.2159
4.000000	-10	53.4306
8.000000	-10	35.4843
12	-10	58.1163
16	-10	36.8059
20	-10	17.1057
24	-10	68.3081
28	-10	32.2343
32	-10	61.0561
36	-10	19.7603
-26.5	-9.500000	2595.12
-22.5	-9.500000	72.2623
-18.5	-9.500000	70.3269
-14.5	-9.500000	66.3355
-10.5	-9.500000	84.9751
-6.500000	-9.500000	64.8357
-2.500000	-9.500000	69.5628
1.500000	-9.500000	43.4793
5.500000	-9.500000	29.1746
9.500000	-9.500000	30.1722
13.5	-9.500000	62.2467
17.5	-9.500000	70.793
21.5	-9.500000	58.2083
25.5	-9.500000	59.0599
29.5	-9.500000	48.6126
33.5	-9.500000	64.012
37.5	-9.500000	17.0369
-25	-9.000000	78.0791
-21	-9.000000	106.285
-17	-9.000000	73.8632
-13	-9.000000	73.3578
-9.000000	-9.000000	69.8275
-5.000000	-9.000000	59.9817
-1.000000	-9.000000	67.5178
3.000000	-9.000000	55.1474
7.000000	-9.000000	22.3884
11	-9.000000	31.7024
15	-9.000000	60.3301
19	-9.000000	35.6902
23	-9.000000	71.1455
27	-9.000000	61.975
31	-9.000000	71.0005
35	-9.000000	69.0162
-27.5	-8.500000	68.9658
-23.5	-8.500000	65.149
-19.5	-8.500000	62.8331
-15.5	-8.500000	70.4543
-11.5	-8.500000	79.6563
-7.500000	-8.500000	66.7271
-3.500000	-8.500000	61.9464
0.500000	-8.500000	55.4653
4.500000	-8.500000	33.2317
8.500000	-8.500000	34.5376
12.5	-8.500000	34.2666
16.5	-8.500000	66.2703
20.5	-8.500000	24.4893
24.5	-8.500000	61.7817
28.5	-8.500000	37.3299
32.5	-8.500000	60.1183
36.5	-8.500000	37.9724
-26	-8.000000	803.396
-22	-8.000000	67.461
-18	-8.000000	74.5039
-14	-8.000000	65.9706
-10	-8.000000	64.3827
-6.000000	-8.000000	63.6818
-2.000000	-8.000000	65.2166
2.000000	-8.000000	56.8463
6.000000	-8.000000	20.5518
10	-8.000000	27.7827
14	-8.000000	51.8743
18	-8.000000	67.4405
22	-8.000000	65.9854
26	-8.000000	56.7277
30	-8.000000	30.9087
34	-8.000000	65.0647
38	-8.000000	26.8301
-24.5	-7.500000	68.0569
-20.5	-7.500000	67.5719
-16.5	-7.500000	73.7294
-12.5	-7.500000	65.1658
-8.500000	-7.500000	60.4735
-4.500000	-7.500000	62.0339
-0.500000	-7.500000	59.029
3.500000	-7.500000	28.8677
7.500000	-7.500000	24.1364
11.5	-7.500000	52.8939
15.5	-7.500000	35.3348
19.5	-7.500000	72.1787
23.5	-7.500000	70.0642
27.5	-7.500000	22.9803
31.5	-7.500000	64.1329
35.5	-7.500000	52.9933
-27	-7.000000	61.7895
-23	-7.000000	68.276
-19	-7.000000	67.8637
-15	-7.000000	74.5215
-11	-7.000000	72.6724
-7.000000	-7.000000	64.67
-3.000000	-7.000000	65.1967
1.000000	-7.000000	58.5371
5.000000	-7.000000	20.4095
9.000000	-7.000000	66.7416
13	-7.000000	25.6408
17	-7.000000	69.6888
21	-7.000000	58.417
25	-7.000000	54.0531
29	-7.000000	20.8439
33	-7.000000	49.2149
37	-7.000000	59.1559
-25.5	-6.500000	384.022
-21.5	-6.500000	65.6554
-17.5	-6.500000	68.8847
-13.5	-6.500000	67.8048
-9.500000	-6.500000	66.4882
-5.500000	-6.500000	68.6533
-1.500000	-6.500000	61.2729
2.500000	-6.500000	45.462
6.500000	-6.500000	21.9906
10.5	-6.500000	61.3964
14.5	-6.500000	38.33
18.5	-6.500000	61.7043
22.5	-6.500000	58.3877
26.5	-6.500000	16.9466
30.5	-6.500000	62.1695
34.5	-6.500000	32.0334
-28	-6.000000	70.8019
-24	-6.000000	70.1399
-20	-6.000000	71.3236
-16	-6.000000	68.3982
-12	-6.000000	60.8969
-8.000000	-6.000000	63.6296
-4.000000	-6.000000	65.5955
0.000000	-6.000000	60.7071
4.000000	-6.000000	57.129
8.000000	-6.000000	58.1144
12	-6.000000	72.8139
16	-6.000000	55.962
20	-6.000000	64.3181
24	-6.000000	71.273
28	-6.000000	34.3144
32	-6.000000	74.74
36	-6.000000	62.8971
-26.5	-5.500000	79.5308
-22.5	-5.500000	67.039
-18.5	-5.500000	61.7383
-14.5	-5.500000	70.415
-10.5	-5.500000	64.9282
-6.500000	-5.500000	58.5898
-2.500000	-5.500000	65.9547
1.500000	-5.500000	62.4797
5.500000	-5.500000	27.4588
9.500000	-5.500000	54.3675
13.5	-5.500000	52.9533
17.5	-5.500000	67.7391
21.5	-5.500000	66.6142
25.5	-5.500000	40.9463
29.5	-5.500000	18.5254
33.5	-5.500000	59.6421
37.5	-5.500000	58.3247
-25	-5.000000	40.0013
-21	-5.000000	65.1994
-17	-5.000000	63.457
-13	-5.000000	70.9103
-9.000000	-5.000000	44.5467
-5.000000	-5.000000	77.5443
-1.000000	-5.000000	62.9638
3.000000	-5.000000	43.8545
7.000000	-5.000000	51.1595
11	-5.000000	64.54
15	-5.000000	66.8615
19	-5.000000	72.1003
23	-5.000000	62.7101
27	-5.000000	57.5935
31	-5.000000	67.0124
35	-5.000000	64.0529
-27.5	-4.500000	64.0751
-23.5	-4.500000	70.4221
-19.5	-4.500000	64.6035
-15.5	-4.500000	48.8305
-11.5	-4.500000	77.9688
-7.500000	-4.500000	70.2975
-3.500000	-4.500000	63.9384
0.500000	-4.500000	57.2754
4.500000	-4.500000	59.0148
8.500000	-4.500000	27.231
12.5	-4.500000	62.55
16.5	-4.500000	71.2776
20.5	-4.500000	70.1365
24.5	-4.500000	64.6305
28.5	-4.500000	48.5922
32.5	-4.500000	54.9677
36.5	-4.500000	68.1621
-26	-4.000000	43.9229
-22	-4.000000	67.2741
-18	-4.000000	64.3914
-14	-4.000000	77.1142
-10	-4.000000	104.106
-6.000000	-4.000000	0.639823
-2.000000	-4.000000	65.714
2.000000	-4.000000	59.4838
6.000000	-4.000000	59.1057
10	-4.000000	22.0417
14	-4.000000	66.4493
18	-4.000000	67.47
22	-4.000000	65.8956
26	-4.000000	65.3585
30	-4.000000	26.0803
34	-4.000000	57.5279
38	-4.000000	35.0041
-24.5	-3.500000	71.4586
-20.5	-3.500000	64.3824
-16.5	-3.500000	61.4149
-12.5	-3.500000	71.2324
-8.500000	-3.500000	0.639823
-4.500000	-3.500000	21.9134
-0.500000	-3.500000	60.0346
3.500000	-3.500000	50.9979
7.500000	-3.500000	77.0275
11.5	-3.500000	49.7081
15.5	-3.500000	65.8523
19.5	-3.500000	69.6507
23.5	-3.500000	65.0788
27.5	-3.500000	58.7832
31.5	-3.500000	52.0811
35.5	-3.500000	59.6469
-27	-3.000000	40.4397
-23	-3.000000	62.9255
-19	-3.000000	68.3737
-15	-3.000000	60.2958
-11	-3.000000	10.9485
-7.000000	-3.000000	0.639823
-3.000000	-3.000000	76.0203
1.000000	-3.000000	57.7246
5.000000	-3.000000	70.459
9.000000	-3.000000	57.0499
13	-3.000000	67.1375
17	-3.000000	66.2796
21	-3.000000	66.7635
25	-3.000000	63.3266
29	-3.000000	59.5423
33	-3.000000	47.2331
37	-3.000000	47.7824
-25.5	-2.500000	77.8038
-21.5	-2.500000	71.5874
-17.5	-2.500000	59.7229
-13.5	-2.500000	57.1779
-9.500000	-2.500000	45.2781
-5.500000	-2.500000	159.768
-1.500000	-2.500000	67.712
2.500000	-2.500000	50.4435
6.500000	-2.500000	69.6786
10.5	-2.500000	63.1419
14.5	-2.500000	64.0936
18.5	-2.500000	67.3231
22.5	-2.500000	69.7489
26.5	-2.500000	60.4776
30.5	-2.500000	82.7618
34.5	-2.500000	50.0943
-28	-2.000000	44.6606
-24	-2.000000	197.073
-20	-2.000000	62.9397
-16	-2.000000	38.594
-12	-2.000000	78.7848
-8.000000	-2.000000	66.0975
-4.000000	-2.000000	85.6131
0.000000	-2.000000	58.7286
4.000000	-2.000000	37.7373
8.000000	-2.000000	70.7597
12	-2.000000	67.598
16	-2.000000	69.7906
20	-2.000000	67.4874
24	-2.000000	64.632
28	-2.000000	55.5736
32	-2.000000	70.7092
36	-2.000000	53.3487
-26.5	-1.500000	54.0778
-22.5	-1.500000	61.6323
-18.5	-1.500000	64.12
-14.5	-1.500000	47.2686
-10.5	-1.500000	68.8714
-6.500000	-1.500000	300.042
-2.500000	-1.500000	80.4052
1.500000	-1.500000	65.8311
5.500000	-1.500000	42.747
9.500000	-1.500000	76.6057
13.5	-1.500000	71.6959
17.5	-1.500000	66.3433
21.5	-1.500000	67.122
25.5	-1.500000	62.4026
29.5	-1.500000	56.5139
33.5	-1.500000	77.0456
37.5	-1.500000	58.1907
-25	-1.000000	56.5241
-21	-1.000000	107.639
-17	-1.000000	54.308
-13	-1.000000	73.7993
-9.000000	-1.000000	67.482
-5.000000	-1.000000	563.347
-1.000000	-1.000000	65.7802
3.000000	-1.000000	101.886
7.000000	-1.000000	62.2992
11	-1.000000	63.9839
15	-1.000000	61.1455
19	-1.000000	64.7796
23	-1.000000	67.0768
27	-1.000000	61.2967
31	-1.000000	45.8134
35	-1.000000	37.6857
-27.5	-0.500000	50.544
-23.5	-0.500000	81.485
-19.5	-0.500000	75.2592
-15.5	-0.500000	42.7249
-11.5	-0.500000	59.85
-7.500000	-0.500000	82.7586
-3.500000	-0.500000	43.6535
0.500000	-0.500000	73.7006
4.500000	-0.500000	75.2394
8.500000	-0.500000	74.2416
12.5	-0.500000	61.7193
16.5	-0.500000	67.8468
20.5	-0.500000	69.0664
24.5	-0.500000	67.0305
28.5	-0.500000	56.8132
32.5	-0.500000	43.4626
36.5	-0.500000	61.7747
-26	0.000000	41.5442
-22	0.000000	49.2082
-18	0.000000	52.5245
-14	0.000000	60.9732
-10	0.000000	67.7754
-6.000000	0.000000	430.165
-2.000000	0.000000	74.389
2.000000	0.000000	89.5044
6.000000	0.000000	39.885
10	0.000000	61.3665
14	0.000000	64.3501
18	0.000000	63.9329
22	0.000000	67.6581
26	0.000000	59.9463
30	0.000000	62.7331
34	0.000000	64.6434
38	0.000000	67.5887
-24.5	0.500000	57.1078
-20.5	0.500000	48.9107
-16.5	0.500000	46.5946
-12.5	0.500000	60.7746
-8.500000	0.500000	59.5433
-4.500000	0.500000	111.844
-0.500000	0.500000	66.1271
3.500000	0.500000	58.9937
7.500000	0.500000	65.6061
11.5	0.500000	61.9205
15.5	0.500000	65.812
19.5	0.500000	64.1265
23.5	0.500000	67.867
27.5	0.500000	61.3785
31.5	0.500000	54.587
35.5	0.500000	19.7151
-27	1.000000	29.8653
-23	1.000000	60.1417
-19	1.000000	54.7627
-15	1.000000	59.3753
-11	1.000000	61.9709
-7.000000	1.000000	53.0777
-3.000000	1.000000	29.4632
1.000000	1.000000	61.7358
5.000000	1.000000	52.3629
9.000000	1.000000	60.1842
13	1.000000	61.0749
17	1.000000	63.8354
21	1.000000	59.0742
25	1.000000	68.6791
29	1.000000	64.6269
33	1.000000	48.267
37	1.000000	58.9229
-25.5	1.500000	34.0876
-21.5	1.500000	21.8729
-17.5	1.500000	50.1385
-13.5	1.500000	62.0749
-9.500000	1.500000	51.4695
-5.500000	1.500000	79.1504
-1.500000	1.500000	30.4622
2.500000	1.500000	63.1527
6.500000	1.500000	46.2472
10.5	1.500000	56.9307
14.5	1.500000	63.2867
18.5	1.500000	69.2955
22.5	1.500000	63.5644
26.5	1.500000	63.1616
30.5	1.500000	66.9961
34.5	1.500000	1622.22
-28	2.000000	44.1259
-24	2.000000	33.979
-20	2.000000	68.3382
-16	2.000000	54.8714
-12	2.000000	62.0754
-8.000000	2.000000	57.5277
-4.000000	2.000000	25.3391
0.000000	2.000000	43.3275
4.000000	2.000000	58.0648
8.000000	2.000000	42.6672
12	2.000000	61.3519
16	2.000000	71.7545
20	2.000000	64.4526
24	2.000000	57.5189
28	2.000000	59.2088
32	2.000000	71.3293
36	2.000000	106.977
-26.5	2.500000	25.578
-22.5	2.500000	28.7784
-18.5	2.500000	61.0388
-14.5	2.500000	63.1855
-10.5	2.500000	57.4164
-6.500000	2.500000	53.0335
-2.500000	2.500000	19.5859
1.500000	2.500000	62.4335
5.500000	2.500000	69.2624
9.500000	2.500000	56.9043
13.5	2.500000	63.5846
17.5	2.500000	62.5853
21.5	2.500000	65.3906
25.5	2.500000	62.9088
29.5	2.500000	57.4104
33.5	2.500000	38.5374
37.5	2.500000	68.3141
-25	3.000000	25.1536
-21	3.000000	54.4266
-17	3.000000	57.605
-13	3.000000	64.3661
-9.000000	3.000000	45.3191
-5.000000	3.000000	28.4239
-1.000000	3.000000	24.647
3.000000	3.000000	63.6954
7.000000	3.000000	54.3557
11	3.000000	67.3012
15	3.000000	60.4599
19	3.000000	67.736
23	3.000000	66.7471
27	3.000000	64.6679
31	3.000000	58.02
35	3.000000	11.4157
-27.5	3.500000	42.4276
-23.5	3.500000	37.6639
-19.5	3.500000	63.8575
-15.5	3.500000	61.6967
-11.5	3.500000	54.944
-7.500000	3.500000	28.364
-3.500000	3.500000	26.8612
0.500000	3.500000	49.2466
4.500000	3.500000	65.3078
8.500000	3.500000	44.9275
12.5	3.500000	66.754
16.5	3.500000	73.218
20.5	3.500000	70.6618
24.5	3.500000	64.9722
28.5	3.500000	55.0012
32.5	3.500000	655.309
36.5	3.500000	54.3369
-26	4.000000	36.1284
-22	4.000000	55.8216
-18	4.000000	59.867
-14	4.000000	62.9638
-10	4.000000	55.7339
-6.000000	4.000000	30.0009
-2.000000	4.000000	34.6398
2.000000	4.000000	63.2381
6.000000	4.000000	62.3982
10	4.000000	49.9302
14	4.000000	62.6065
18	4.000000	71.0998
22	4.000000	66.5873
26	4.000000	62.0327
30	4.000000	53.0927
34	4.000000	76.5349
38	4.000000	62.5756
-24.5	4.500000	64.0075
-20.5	4.500000	17.846
-16.5	4.500000	62.1923
-12.5	4.500000	63.4753
-8.500000	4.500000	53.8302
-4.500000	4.500000	38.0988
-0.500000	4.500000	42.8846
3.500000	4.500000	66.0879
7.500000	4.500000	49.0561
11.5	4.500000	66.3211
15.5	4.500000	68.0482
19.5	4.500000	70.3945
23.5	4.500000	74.2632
27.5	4.500000	69.1058
31.5	4.500000	28.0655
35.5	4.500000	70.1332
-27	5.000000	60.0474
-23	5.000000	58.9319
-19	5.000000	54.3997
-15	5.000000	64.5067
-11	5.000000	57.9156
-7.000000	5.000000	34.2322
-3.000000	5.000000	32.4064
1.000000	5.000000	64.8727
5.000000	5.000000	72.3053
9.000000	5.000000	41.4281
13	5.000000	62.509
17	5.000000	77.7086
21	5.000000	62.7908
25	5.000000	70.6101
29	5.000000	59.2633
33	5.000000	68.1957
37	5.000000	64.4407
-25.5	5.500000	58.52
-21.5	5.500000	53.7809
-17.5	5.500000	59.5969
-13.5	5.500000	67.7698
-9.500000	5.500000	66.6994
-5.500000	5.500000	28.0399
-1.500000	5.500000	39.7394
2.500000	5.500000	65.181
6.500000	5.500000	39.8452
10.5	5.500000	50.6359
14.5	5.500000	62.1414
18.5	5.500000	61.0497
22.5	5.500000	62.5586
26.5	5.500000	69.44
30.5	5.500000	58.1481
34.5	5.500000	49.9565
-28	6.000000	54.2885
-24	6.000000	66.3231
-20	6.000000	29.0077
-16	6.000000	64.8751
-12	6.000000	64.9302
-8.000000	6.000000	60.9721
-4.000000	6.000000	30.381
0.000000	6.000000	41.7887
4.000000	6.000000	68.0431
8.000000	6.000000	32.1976
12	6.000000	43.8112
16	6.000000	59.419
20	6.000000	62.6994
24	6.000000	60.0115
28	6.000000	66.6882
32	6.000000	34.2274
36	6.000000	42.0194
-26.5	6.500000	61.8463
-22.5	6.500000	54.5063
-18.5	6.500000	37.5801
-14.5	6.500000	67.9464
-10.5	6.500000	66.2682
-6.500000	6.500000	60.2666
-2.500000	6.500000	29.5386
1.500000	6.500000	62.5689
5.500000	6.500000	58.9168
9.500000	6.500000	27.2045
13.5	6.500000	60.3624
17.5	6.500000	58.5695
21.5	6.500000	61.0216
25.5	6.500000	58.6827
29.5	6.500000	63.4549
33.5	6.500000	37.1476
37.5	6.500000	55.2918
-25	7.000000	25.1643
-21	7.000000	44.4998
-17	7.000000	37.8145
-13	7.000000	66.5966
-9.000000	7.000000	68.6955
-5.000000	7.000000	58.0162
-1.000000	7.000000	33.9905
3.000000	7.000000	64.0774
7.000000	7.000000	42.6949
11	7.000000	27.0473
15	7.000000	50.133
19	7.000000	52.6532
23	7.000000	59.1233
27	7.000000	61.3719
31	7.000000	56.3382
35	7.000000	47.0051
-27.5	7.500000	66.0812
-23.5	7.500000	70.0497
-19.5	7.500000	27.1053
-15.5	7.500000	55.547
-11.5	7.500000	64.517
-7.500000	7.500000	65.3734
-3.500000	7.500000	39.4253
0.500000	7.500000	60.4061
4.500000	7.500000	64.425
8.500000	7.500000	34.0561
12.5	7.500000	57.5423
16.5	7.500000	62.626
20.5	7.500000	66.2777
24.5	7.500000	31.0715
28.5	7.500000	75.3534
32.5	7.500000	35.3786
36.5	7.500000	57.1948
-26	8.000000	49.4328
-22	8.000000	50.1838
-18	8.000000	35.1547
-14	8.000000	68.2422
-10	8.000000	70.4857
-6.000000	8.000000	66.9814
-2.000000	8.000000	43.3816
2.000000	8.000000	67.7398
6.000000	8.000000	44.8984
10	8.000000	34.9579
14	8.000000	61.8887
18	8.000000	57.418
22	8.000000	70.1994
26	8.000000	42.4567
30	8.000000	65.3078
34	8.000000	36.0299
38	8.000000	55.5799
-24.5	8.500000	34.9302
-20.5	8.500000	36.8387
-16.5	8.500000	54.5762
-12.5	8.500000	66.454
-8.500000	8.500000	66.2858
-4.500000	8.500000	62.8205
-0.500000	8.500000	62.0956
3.500000	8.500000	26.3794
7.500000	8.500000	35.388
11.5	8.500000	63.1552
15.5	8.500000	63.1082
19.5	8.500000	70.9203
23.5	8.500000	46.9213
27.5	8.500000	61.4763
31.5	8.500000	49.6739
35.5	8.500000	47.8418
-27	9.000000	57.0429
-23	9.000000	47.7656
-19	9.000000	39.3563
-15	9.000000	63.7506
-11	9.000000	66.8546
-7.000000	9.000000	68.8182
-3.000000	9.000000	65.0028
1.000000	9.000000	54.4448
5.000000	9.000000	64.2845
9.000000	9.000000	35.56
13	9.000000	58.8315
17	9.000000	65.4585
21	9.000000	66.8281
25	9.000000	29.1429
29	9.000000	67.723
33	9.000000	31.1421
37	9.000000	59.501
-25.5	9.500000	940.632
-21.5	9.500000	56.6505
-17.5	9.500000	64.3547
-13.5	9.500000	64.8237
-9.500000	9.500000	75.9424
-5.500000	9.500000	67.8644
-1.500000	9.500000	75.5985
2.500000	9.500000	49.4944
6.500000	9.500000	40.9172
10.5	9.500000	53.2732
14.5	9.500000	52.886
18.5	9.500000	68.8599
22.5	9.500000	69.2805
26.5	9.500000	41.9836
30.5	9.500000	60.7776
34.5	9.500000	49.306
-28	10	285.988
-24	10	78.5689
-20	10	49.9014
-16	10	65.3606
-12	10	64.7518
-8.000000	10	66.7043
-4.000000	10	63.1499
0.000000	10	57.9436
4.000000	10	77.5266
8.000000	10	42.1976
12	10	44.8972
16	10	65.2609
20	10	61.6774
24	10	56.9703
28	10	60.3787
32	10	46.3173
36	10	56.1425
-26.5	10.5	52.764
-22.5	10.5	48.5892
-18.5	10.5	63.0945
-14.5	10.5	62.364
-10.5	10.5	65.6789
-6.500000	10.5	71.9452
-2.500000	10.5	63.513
1.500000	10.5	46.864
5.500000	10.5	68.658
9.500000	10.5	49.509
13.5	10.5	59.4719
17.5	10.5	65.4105
21.5	10.5	61.3951
25.5	10.5	53.0871
29.5	10.5	62.3495
33.5	10.5	47.7717
37.5	10.5	62.939
-25	11	31.0985
-21	11	54.0927
-17	11	66.5154
-13	11	61.0388
-9.000000	11	65.2994
-5.000000	11	74.9421
-1.000000	11	65.5858
3.000000	11	68.2639
7.000000	11	50.7893
11	11	44.7396
15	11	58.1317
19	11	54.2562
23	11	58.6686
27	11	63.2845
31	11	61.8478
35	11	44.9827
-27.5	11.5	54.0473
-23.5	11.5	60.4455
-19.5	11.5	55.1578
-15.5	11.5	68.5005
-11.5	11.5	64.6442
-7.500000	11.5	66.1065
-3.500000	11.5	66.7153
0.500000	11.5	42.7506
4.500000	11.5	2595.12
8.500000	11.5	62.0077
12.5	11.5	65.3498
16.5	11.5	59.4991
20.5	11.5	44.8209
24.5	11.5	55.2135
28.5	11.5	63.1202
32.5	11.5	50.6813
36.5	11.5	54.502
-26	12	67.4259
-22	12	64.269
-18	12	63.6463
-14	12	78.149
-10	12	64.9937
-6.000000	12	67.3028
-2.000000	12	65.8858
2.000000	12	41.4137
6.000000	12	48.4606
10	12	34.5401
14	12	65.1248
18	12	50.9214
22	12	45.9434
26	12	62.0837
30	12	69.4818
34	12	34.6142
38	12	59.2317
-24.5	12.5	315.143
-20.5	12.5	61.3367
-16.5	12.5	33.2026
-12.5	12.5	61.7263
-8.500000	12.5	66.9505
-4.500000	12.5	64.6005
-0.500000	12.5	62.6398
3.500000	12.5	204.476
7.500000	12.5	67.9663
11.5	12.5	31.7593
15.5	12.5	58.16
19.5	12.5	43.3896
23.5	12.5	63.4088
27.5	12.5	63.8606
31.5	12.5	61.0778
35.5	12.5	36.9015
-27	13	35.9271
-23	13	107.081
-19	13	0.639823
-15	13	2595.12
-11	13	59.8934
-7.000000	13	64.0702
-3.000000	13	62.3714
1.000000	13	47.9113
5.000000	13	26.1761
9.000000	13	49.6188
13	13	67.8766
17	13	57.2796
21	13	54.8156
25	13	61.3603
29	13	67.0125
33	13	49.7592
37	13	56.2737
-25.5	13.5	5.128324
-21.5	13.5	70.0372
-17.5	13.5	231.69
-13.5	13.5	63.326
-9.500000	13.5	63.2088
-5.500000	13.5	64.4969
-1.500000	13.5	57.7165
2.500000	13.5	39.1028
6.500000	13.5	0.639823
10.5	13.5	17.3291
14.5	13.5	60.142
18.5	13.5	54.8467
22.5	13.5	64.5066
26.5	13.5	60.0932
30.5	13.5	70.5164
34.5	13.5	35.7011
-28	14	72.0204
-24	14	66.6515
-20	14	1.552126
-16	14	49.2484
-12	14	67.5759
-8.000000	14	62.2137
-4.000000	14	68.5987
0.000000	14	56.4243
4.000000	14	57.0272
8.000000	14	28.0893
12	14	50.5711
16	14	62.2944
20	14	39.9979
24	14	61.2665
28	14	63.6996
32	14	59.0329
36	14	48.6423
-26.5	14.5	46.6322
-22.5	14.5	68.2479
-18.5	14.5	62.0331
-14.5	14.5	118.948
-10.5	14.5	65.1608
-6.500000	14.5	70.427
-2.500000	14.5	58.8076
1.500000	14.5	53.4929
5.500000	14.5	161.999
9.500000	14.5	63.8846
13.5	14.5	49.4903
17.5	14.5	61.7042
21.5	14.5	57.3777
25.5	14.5	63.5712
29.5	14.5	62.5528
33.5	14.5	47.3564
37.5	14.5	64.4204
-25	15	23.7738
-21	15	201.975
-17	15	49.8391
-13	15	43.1461
-9.000000	15	56.0943
-5.000000	15	41.3164
-1.000000	15	67.7885
3.000000	15	53.0558
7.000000	15	173.199
11	15	61.4431
15	15	63.6441
19	15	58.1005
23	15	56.5688
27	15	70.9436
31	15	65.9419
35	15	44.1876
-27.5	15.5	1.758350
-23.5	15.5	83.0579
-19.5	15.5	447.861
-15.5	15.5	0.639823
-11.5	15.5	68.7492
-7.500000	15.5	39.9082
-3.500000	15.5	72.9407
0.500000	15.5	41.1646
4.500000	15.5	80.7856
8.500000	15.5	100.714
12.5	15.5	36.8153
16.5	15.5	71.8836
20.5	15.5	51.5365
24.5	15.5	57.2776
28.5	15.5	65.5549
32.5	15.5	68.1472
36.5	15.5	66.0662
-26	16	11.2079
-22	16	208.932
-18	16	1031.29
-14	16	14.6637
-10	16	57.5767
-6.000000	16	82.1451
-2.000000	16	70.0332
2.000000	16	54.2151
6.000000	16	80.4788
10	16	55.6838
14	16	49.1314
18	16	67.1238
22	16	42.5992
26	16	69.717
30	16	69.607
34	16	60.2316
38	16	75.9504
-24.5	16.5	1.512249
-20.5	16.5	1430.51
-16.5	16.5	24.7182
-12.5	16.5	78.328
-8.500000	16.5	61.7564
-4.500000	16.5	0.949302
-0.500000	16.5	43.1858
3.500000	16.5	43.6703
7.500000	16.5	193.3
11.5	16.5	61.9029
15.5	16.5	69.8244
19.5	16.5	44.4828
23.5	16.5	54.8293
27.5	16.5	61.497
31.5	16.5	50.1097
35.5	16.5	70.0995
-27	17	36.1556
-23	17	1.165282
-19	17	2595.12
-15	17	1.417594
-11	17	54.5092
-7.000000	17	148.047
-3.000000	17	1.606054
1.000000	17	58.6934
5.000000	17	63.0959
9.000000	17	65.3055
13	17	57.6207
17	17	62.8544
21	17	50.0115
25	17	61.9698
29	17	68.9697
33	17	65.3464
37	17	12.7787
-25.5	17.5	0.639823
-21.5	17.5	17.5585
-17.5	17.5	23.379
-13.5	17.5	74.8238
-9.500000	17.5	43.6607
-5.500000	17.5	3.350671
-1.500000	17.5	2595.12
2.500000	17.5	54.4765
6.500000	17.5	462.275
10.5	17.5	52.7127
14.5	17.5	39.6544
18.5	17.5	42.7546
22.5	17.5	63.9035
26.5	17.5	70.246
30.5	17.5	71.9494
34.5	17.5	67.9338
-28	18	98.1079
-24	18	0.639823
-20	18	546.983
-16	18	501.775
-12	18	62.8582
-8.000000	18	63.54
-4.000000	18	127.891
0.000000	18	48.798
4.000000	18	40.8071
8.000000	18	28.2797
12	18	55.2122
16	18	42.7623
20	18	42.7358
24	18	66.0868
28	18	18.1053
32	18	16.5159
36	18	66.7137
-26.5	18.5	32.1985
-22.5	18.5	11.3349
-18.5	18.5	481.135
-14.5	18.5	65.5956
-10.5	18.5	28.0624
-6.500000	18.5	58.0543
-2.500000	18.5	73.7913
1.500000	18.5	32.855
5.500000	18.5	2.297755
9.500000	18.5	77.6962
13.5	18.5	56.6059
17.5	18.5	64.6649
21.5	18.5	59.3863
25.5	18.5	55.5622
29.5	18.5	40.2916
33.5	18.5	68.4748
37.5	18.5	2595.12
-25	19	0.639823
-21	19	31.042
-17	19	36.1432
-13	19	67.2352
-9.000000	19	28.974
-5.000000	19	104.531
-1.000000	19	58.4879
3.000000	19	22.2304
7.000000	19	0.778282
11	19	51.5965
15	19	45.6229
19	19	47.1938
23	19	54.7342
27	19	256.248
31	19	60.7249
35	19	76.2194
-27.5	19.5	38.108
-23.5	19.5	0.639823
-19.5	19.5	0.801375
-15.5	19.5	168.055
-11.5	19.5	23.1575
-7.500000	19.5	86.635
-3.500000	19.5	65.3357
0.500000	19.5	32.2998
4.500000	19.5	27.0521
8.500000	19.5	126.106
12.5	19.5	67.4647
16.5	19.5	51.4506
20.5	19.5	24.8986
24.5	19.5	63.9654
28.5	19.5	500.978
32.5	19.5	60.5919
36.5	19.5	71.7502
-26	20	71.4548
-22	20	68.2197
-18	20	39.5056
-14	20	1.978504
-10	20	25.1547
-6.000000	20	61.406
-2.000000	20	70.756
2.000000	20	23.2264
6.000000	20	21.2109
10	20	59.2565
14	20	60.084
18	20	62.9977
22	20	45.1934
26	20	29.8356
30	20	31.5016
34	20	59.0627
38	20	59.4339