File: data/derived_data/raman/20170920_Gr-NH2_for_Radisurf/20170920 Gr-NH for Radisurf map 1/G int.txt
#XList		#YList		#IList
-28	-22	1.257557
-24	-22	293.634
-20	-22	53.7858
-16	-22	347.66
-12	-22	200.711
-8.000000	-22	414.825
-4.000000	-22	380.437
0.000000	-22	343.323
4.000000	-22	45.9494
8.000000	-22	373.164
12	-22	330.852
16	-22	379.053
20	-22	480.157
24	-22	27.2212
28	-22	7.031357
32	-22	130.792
36	-22	0.000000
-26.5	-21.5	2.257244
-22.5	-21.5	194.219
-18.5	-21.5	291.897
-14.5	-21.5	278.916
-10.5	-21.5	277.83
-6.500000	-21.5	389.151
-2.500000	-21.5	206.341
1.500000	-21.5	39.7192
5.500000	-21.5	381.865
9.500000	-21.5	284.808
13.5	-21.5	294.624
17.5	-21.5	321.085
21.5	-21.5	414.418
25.5	-21.5	26.8936
29.5	-21.5	175.323
33.5	-21.5	0.047930
37.5	-21.5	0.370508
-25	-21	191.433
-21	-21	294.575
-17	-21	292.39
-13	-21	155.339
-9.000000	-21	319.02
-5.000000	-21	224.815
-1.000000	-21	225.56
3.000000	-21	5.965931
7.000000	-21	252.954
11	-21	262.108
15	-21	329.258
19	-21	354.091
23	-21	351.323
27	-21	197.886
31	-21	417.996
35	-21	0.973528
-27.5	-20.5	0.000000
-23.5	-20.5	244.894
-19.5	-20.5	314.005
-15.5	-20.5	311.979
-11.5	-20.5	9.837633
-7.500000	-20.5	207.979
-3.500000	-20.5	206.616
0.500000	-20.5	20.5874
4.500000	-20.5	170.503
8.500000	-20.5	343.317
12.5	-20.5	239.593
16.5	-20.5	313.53
20.5	-20.5	414.967
24.5	-20.5	272.69
28.5	-20.5	211.293
32.5	-20.5	6.422777
36.5	-20.5	0.000000
-26	-20	3.833940
-22	-20	241.815
-18	-20	360.411
-14	-20	132.582
-10	-20	231.993
-6.000000	-20	27.3415
-2.000000	-20	57.1072
2.000000	-20	5.219433
6.000000	-20	328.68
10	-20	262.731
14	-20	191.408
18	-20	61.8643
22	-20	396.671
26	-20	9.570539
30	-20	372.493
34	-20	0.000000
38	-20	3.479077
-24.5	-19.5	247.433
-20.5	-19.5	313.356
-16.5	-19.5	330.209
-12.5	-19.5	3.805340
-8.500000	-19.5	257.104
-4.500000	-19.5	148.113
-0.500000	-19.5	11.2688
3.500000	-19.5	262.29
7.500000	-19.5	344.895
11.5	-19.5	193.741
15.5	-19.5	278.096
19.5	-19.5	362.461
23.5	-19.5	380.079
27.5	-19.5	94.8412
31.5	-19.5	60.5863
35.5	-19.5	1.626754
-27	-19	12.007
-23	-19	224.872
-19	-19	296.576
-15	-19	423.548
-11	-19	2.060737
-7.000000	-19	38.0696
-3.000000	-19	232.97
1.000000	-19	6.386351
5.000000	-19	309.819
9.000000	-19	340.461
13	-19	199.623
17	-19	206.432
21	-19	416.922
25	-19	34.021
29	-19	347.219
33	-19	1.350730
37	-19	14.5224
-25.5	-18.5	3.476671
-21.5	-18.5	74.8392
-17.5	-18.5	326.798
-13.5	-18.5	26.3968
-9.500000	-18.5	8.417295
-5.500000	-18.5	83.9863
-1.500000	-18.5	390.367
2.500000	-18.5	327.721
6.500000	-18.5	346.492
10.5	-18.5	255.894
14.5	-18.5	222.829
18.5	-18.5	247.894
22.5	-18.5	408.56
26.5	-18.5	208.248
30.5	-18.5	321.544
34.5	-18.5	4.195456
-28	-18	11.3701
-24	-18	5.816294
-20	-18	35.4497
-16	-18	336.856
-12	-18	5.718605
-8.000000	-18	7.269035
-4.000000	-18	279.724
0.000000	-18	151.393
4.000000	-18	374.415
8.000000	-18	293.53
12	-18	182.851
16	-18	265.308
20	-18	358.812
24	-18	157.106
28	-18	65.1318
32	-18	7.728404
36	-18	0.000000
-26.5	-17.5	4.686475
-22.5	-17.5	1.512348
-18.5	-17.5	211.575
-14.5	-17.5	369.35
-10.5	-17.5	6.505827
-6.500000	-17.5	7.853517
-2.500000	-17.5	373.544
1.500000	-17.5	316.906
5.500000	-17.5	317.721
9.500000	-17.5	332.662
13.5	-17.5	147.968
17.5	-17.5	217.412
21.5	-17.5	374.041
25.5	-17.5	401.628
29.5	-17.5	138.972
33.5	-17.5	3.629029
37.5	-17.5	5.523007
-25	-17	0.976490
-21	-17	9.665376
-17	-17	258.266
-13	-17	294.517
-9.000000	-17	6.323810
-5.000000	-17	112.735
-1.000000	-17	236.043
3.000000	-17	492.825
7.000000	-17	323.103
11	-17	302.682
15	-17	230.509
19	-17	387.948
23	-17	145.253
27	-17	300.367
31	-17	380.64
35	-17	7.812296
-27.5	-16.5	156.57
-23.5	-16.5	0.000000
-19.5	-16.5	269.861
-15.5	-16.5	444.887
-11.5	-16.5	119.229
-7.500000	-16.5	51.4044
-3.500000	-16.5	392.034
0.500000	-16.5	207.195
4.500000	-16.5	356.756
8.500000	-16.5	330.041
12.5	-16.5	141.8
16.5	-16.5	235.091
20.5	-16.5	230.547
24.5	-16.5	369.772
28.5	-16.5	293.378
32.5	-16.5	7.018325
36.5	-16.5	4.681525
-26	-16	49.6731
-22	-16	9.528922
-18	-16	355.593
-14	-16	309.333
-10	-16	238.011
-6.000000	-16	323.757
-2.000000	-16	412.772
2.000000	-16	219.942
6.000000	-16	273.06
10	-16	300.64
14	-16	226.704
18	-16	279.867
22	-16	182.616
26	-16	305.015
30	-16	205.644
34	-16	6.642451
38	-16	4.494728
-24.5	-15.5	40.5255
-20.5	-15.5	12.5927
-16.5	-15.5	331.787
-12.5	-15.5	148.96
-8.500000	-15.5	346.157
-4.500000	-15.5	377.207
-0.500000	-15.5	357.137
3.500000	-15.5	209.814
7.500000	-15.5	339.766
11.5	-15.5	257.134
15.5	-15.5	206.885
19.5	-15.5	223.555
23.5	-15.5	39.8628
27.5	-15.5	241.366
31.5	-15.5	141.832
35.5	-15.5	195.024
-27	-15	73.4599
-23	-15	2.233843
-19	-15	366.611
-15	-15	388.444
-11	-15	295.649
-7.000000	-15	370.197
-3.000000	-15	385.694
1.000000	-15	350.747
5.000000	-15	392.209
9.000000	-15	321.371
13	-15	167.781
17	-15	265.122
21	-15	161.357
25	-15	30.7661
29	-15	180.8
33	-15	22.1444
37	-15	168.838
-25.5	-14.5	9.375093
-21.5	-14.5	10.3419
-17.5	-14.5	329.337
-13.5	-14.5	346.221
-9.500000	-14.5	389.264
-5.500000	-14.5	370.495
-1.500000	-14.5	386.495
2.500000	-14.5	284.499
6.500000	-14.5	401.099
10.5	-14.5	202.352
14.5	-14.5	214.374
18.5	-14.5	204.469
22.5	-14.5	2.112743
26.5	-14.5	25.5838
30.5	-14.5	163.67
34.5	-14.5	275.877
-28	-14	7.276655
-24	-14	1.368253
-20	-14	16.2751
-16	-14	351.047
-12	-14	348.994
-8.000000	-14	395.897
-4.000000	-14	346.919
0.000000	-14	362.658
4.000000	-14	278.483
8.000000	-14	314.217
12	-14	247.955
16	-14	325.302
20	-14	28.6785
24	-14	226.345
28	-14	267.44
32	-14	284.654
36	-14	201.802
-26.5	-13.5	10.8654
-22.5	-13.5	3.832496
-18.5	-13.5	220.27
-14.5	-13.5	402.795
-10.5	-13.5	53.7286
-6.500000	-13.5	373.12
-2.500000	-13.5	356.842
1.500000	-13.5	222.155
5.500000	-13.5	331.794
9.500000	-13.5	193.616
13.5	-13.5	274.517
17.5	-13.5	326.858
21.5	-13.5	5.890202
25.5	-13.5	23.7035
29.5	-13.5	288.352
33.5	-13.5	352.392
37.5	-13.5	197.192
-25	-13	1.864498
-21	-13	257.82
-17	-13	310.982
-13	-13	384.197
-9.000000	-13	345.646
-5.000000	-13	368.939
-1.000000	-13	285.382
3.000000	-13	263.258
7.000000	-13	406.736
11	-13	79.2499
15	-13	199.644
19	-13	75.3185
23	-13	129.675
27	-13	220.934
31	-13	13.114
35	-13	143.934
-27.5	-12.5	51.1902
-23.5	-12.5	0.957806
-19.5	-12.5	14.4129
-15.5	-12.5	337.938
-11.5	-12.5	306.861
-7.500000	-12.5	391.874
-3.500000	-12.5	382.566
0.500000	-12.5	202.412
4.500000	-12.5	89.4924
8.500000	-12.5	173.03
12.5	-12.5	12.7285
16.5	-12.5	297.355
20.5	-12.5	126.009
24.5	-12.5	309.762
28.5	-12.5	438.852
32.5	-12.5	39.0432
36.5	-12.5	191.565
-26	-12	232.943
-22	-12	1.198398
-18	-12	210.261
-14	-12	359.788
-10	-12	391.66
-6.000000	-12	325.624
-2.000000	-12	361.237
2.000000	-12	235.749
6.000000	-12	339.744
10	-12	18.3136
14	-12	12.2645
18	-12	297.389
22	-12	5.374202
26	-12	190.034
30	-12	355.482
34	-12	221.746
38	-12	218.054
-24.5	-11.5	4.565397
-20.5	-11.5	2.242890
-16.5	-11.5	252.878
-12.5	-11.5	283.402
-8.500000	-11.5	396.281
-4.500000	-11.5	225.316
-0.500000	-11.5	267.226
3.500000	-11.5	307.563
7.500000	-11.5	320.76
11.5	-11.5	3.502386
15.5	-11.5	18.6356
19.5	-11.5	122.326
23.5	-11.5	313.886
27.5	-11.5	25.6096
31.5	-11.5	3.389513
35.5	-11.5	266.039
-27	-11	9.859239
-23	-11	5.058091
-19	-11	316.013
-15	-11	357.23
-11	-11	353.423
-7.000000	-11	234.075
-3.000000	-11	325.028
1.000000	-11	281.921
5.000000	-11	241.629
9.000000	-11	349.761
13	-11	1.212449
17	-11	272.064
21	-11	259.727
25	-11	246.012
29	-11	21.7011
33	-11	4.034741
37	-11	335.086
-25.5	-10.5	3.340094
-21.5	-10.5	3.566013
-17.5	-10.5	371.293
-13.5	-10.5	199.254
-9.500000	-10.5	329.95
-5.500000	-10.5	180.37
-1.500000	-10.5	122.343
2.500000	-10.5	339.349
6.500000	-10.5	290.982
10.5	-10.5	190.523
14.5	-10.5	1.061233
18.5	-10.5	221.659
22.5	-10.5	63.6118
26.5	-10.5	282.358
30.5	-10.5	8.823259
34.5	-10.5	11.9397
-28	-10	190.969
-24	-10	21.1474
-20	-10	94.1052
-16	-10	369.057
-12	-10	198.701
-8.000000	-10	220.069
-4.000000	-10	192.275
0.000000	-10	174.219
4.000000	-10	316.54
8.000000	-10	252.797
12	-10	38.171
16	-10	8.072035
20	-10	392.42
24	-10	277.44
28	-10	5.996804
32	-10	4.956289
36	-10	20.7911
-26.5	-9.500000	0.862607
-22.5	-9.500000	88.3736
-18.5	-9.500000	370.918
-14.5	-9.500000	349.736
-10.5	-9.500000	32.118
-6.500000	-9.500000	192.79
-2.500000	-9.500000	198.562
1.500000	-9.500000	345.939
5.500000	-9.500000	261.073
9.500000	-9.500000	246.638
13.5	-9.500000	78.0063
17.5	-9.500000	11.5492
21.5	-9.500000	137.124
25.5	-9.500000	321.822
29.5	-9.500000	5.796923
33.5	-9.500000	109.256
37.5	-9.500000	233.539
-25	-9.000000	14.7686
-21	-9.000000	20.5186
-17	-9.000000	341.54
-13	-9.000000	41.8605
-9.000000	-9.000000	296.909
-5.000000	-9.000000	200.936
-1.000000	-9.000000	145.33
3.000000	-9.000000	310.785
7.000000	-9.000000	165.141
11	-9.000000	422.898
15	-9.000000	17.9175
19	-9.000000	346.38
23	-9.000000	268.508
27	-9.000000	102.649
31	-9.000000	9.786557
35	-9.000000	34.3972
-27.5	-8.500000	14.2678
-23.5	-8.500000	332.718
-19.5	-8.500000	137.888
-15.5	-8.500000	334.574
-11.5	-8.500000	11.7135
-7.500000	-8.500000	300.415
-3.500000	-8.500000	215.417
0.500000	-8.500000	360.341
4.500000	-8.500000	274.901
8.500000	-8.500000	321.351
12.5	-8.500000	178.921
16.5	-8.500000	78.5813
20.5	-8.500000	456.872
24.5	-8.500000	239.036
28.5	-8.500000	138.258
32.5	-8.500000	227.292
36.5	-8.500000	8.296193
-26	-8.000000	0.402060
-22	-8.000000	320.081
-18	-8.000000	369.89
-14	-8.000000	365.272
-10	-8.000000	330.17
-6.000000	-8.000000	191.279
-2.000000	-8.000000	139.465
2.000000	-8.000000	301.058
6.000000	-8.000000	216.666
10	-8.000000	443.994
14	-8.000000	298.514
18	-8.000000	210.508
22	-8.000000	301.217
26	-8.000000	300.65
30	-8.000000	238.957
34	-8.000000	288.607
38	-8.000000	5.750170
-24.5	-7.500000	151.507
-20.5	-7.500000	222.042
-16.5	-7.500000	346.709
-12.5	-7.500000	195.629
-8.500000	-7.500000	289.573
-4.500000	-7.500000	204.269
-0.500000	-7.500000	385.362
3.500000	-7.500000	351.444
7.500000	-7.500000	165.945
11.5	-7.500000	156.208
15.5	-7.500000	381.831
19.5	-7.500000	77.1676
23.5	-7.500000	149.932
27.5	-7.500000	207.831
31.5	-7.500000	76.8513
35.5	-7.500000	234.55
-27	-7.000000	6.841392
-23	-7.000000	319.968
-19	-7.000000	176.72
-15	-7.000000	322.653
-11	-7.000000	30.4343
-7.000000	-7.000000	199.655
-3.000000	-7.000000	186.027
1.000000	-7.000000	365.255
5.000000	-7.000000	229.158
9.000000	-7.000000	253.117
13	-7.000000	203.958
17	-7.000000	303.976
21	-7.000000	222.355
25	-7.000000	128.383
29	-7.000000	280.348
33	-7.000000	324.998
37	-7.000000	146.7
-25.5	-6.500000	0.000000
-21.5	-6.500000	342.952
-17.5	-6.500000	298.159
-13.5	-6.500000	357.402
-9.500000	-6.500000	239.627
-5.500000	-6.500000	203.313
-1.500000	-6.500000	294.718
2.500000	-6.500000	213.451
6.500000	-6.500000	197.03
10.5	-6.500000	218.157
14.5	-6.500000	202.367
18.5	-6.500000	233.547
22.5	-6.500000	187.794
26.5	-6.500000	143.916
30.5	-6.500000	182.017
34.5	-6.500000	345.584
-28	-6.000000	60.6172
-24	-6.000000	221.988
-20	-6.000000	322.894
-16	-6.000000	338.628
-12	-6.000000	332.411
-8.000000	-6.000000	222.738
-4.000000	-6.000000	228.532
0.000000	-6.000000	210.089
4.000000	-6.000000	271.512
8.000000	-6.000000	289.347
12	-6.000000	313.332
16	-6.000000	321.671
20	-6.000000	217.07
24	-6.000000	297.35
28	-6.000000	306.308
32	-6.000000	46.589
36	-6.000000	218.965
-26.5	-5.500000	18.6854
-22.5	-5.500000	339.828
-18.5	-5.500000	249.974
-14.5	-5.500000	366.784
-10.5	-5.500000	6.860878
-6.500000	-5.500000	181.673
-2.500000	-5.500000	39.5937
1.500000	-5.500000	157.435
5.500000	-5.500000	273.114
9.500000	-5.500000	302.759
13.5	-5.500000	326.796
17.5	-5.500000	342.174
21.5	-5.500000	138.961
25.5	-5.500000	166.828
29.5	-5.500000	180.157
33.5	-5.500000	229.968
37.5	-5.500000	246.322
-25	-5.000000	5.378591
-21	-5.000000	349.393
-17	-5.000000	232.215
-13	-5.000000	104.985
-9.000000	-5.000000	10.7867
-5.000000	-5.000000	10.3402
-1.000000	-5.000000	290.024
3.000000	-5.000000	331.397
7.000000	-5.000000	85.2302
11	-5.000000	276.961
15	-5.000000	247.818
19	-5.000000	202.422
23	-5.000000	172.585
27	-5.000000	184.031
31	-5.000000	209.872
35	-5.000000	266.694
-27.5	-4.500000	49.5536
-23.5	-4.500000	222.696
-19.5	-4.500000	253.127
-15.5	-4.500000	308.298
-11.5	-4.500000	8.237447
-7.500000	-4.500000	13.1665
-3.500000	-4.500000	6.320858
0.500000	-4.500000	233.523
4.500000	-4.500000	188.277
8.500000	-4.500000	342.715
12.5	-4.500000	328.936
16.5	-4.500000	253.03
20.5	-4.500000	159.394
24.5	-4.500000	172.735
28.5	-4.500000	313.238
32.5	-4.500000	124.964
36.5	-4.500000	243.947
-26	-4.000000	8.485235
-22	-4.000000	327.186
-18	-4.000000	252.418
-14	-4.000000	252.264
-10	-4.000000	1.230798
-6.000000	-4.000000	0.000000
-2.000000	-4.000000	328.016
2.000000	-4.000000	124.316
6.000000	-4.000000	10.8287
10	-4.000000	292.075
14	-4.000000	151.906
18	-4.000000	171.5
22	-4.000000	145.732
26	-4.000000	171.641
30	-4.000000	359.988
34	-4.000000	178.047
38	-4.000000	394.2
-24.5	-3.500000	4.031029
-20.5	-3.500000	286.171
-16.5	-3.500000	262.409
-12.5	-3.500000	54.9377
-8.500000	-3.500000	12.112
-4.500000	-3.500000	3.512507
-0.500000	-3.500000	269.108
3.500000	-3.500000	104.013
7.500000	-3.500000	24.63
11.5	-3.500000	285.74
15.5	-3.500000	154.643
19.5	-3.500000	154.591
23.5	-3.500000	158.006
27.5	-3.500000	191.934
31.5	-3.500000	9.345402
35.5	-3.500000	97.2061
-27	-3.000000	19.6362
-23	-3.000000	134.407
-19	-3.000000	288.799
-15	-3.000000	280.005
-11	-3.000000	7.543485
-7.000000	-3.000000	1.730330
-3.000000	-3.000000	15.6979
1.000000	-3.000000	299.482
5.000000	-3.000000	82.9404
9.000000	-3.000000	64.4761
13	-3.000000	155.204
17	-3.000000	156.292
21	-3.000000	159.02
25	-3.000000	154.064
29	-3.000000	251.85
33	-3.000000	5.070821
37	-3.000000	111.115
-25.5	-2.500000	7.062243
-21.5	-2.500000	90.0467
-17.5	-2.500000	272.883
-13.5	-2.500000	102.592
-9.500000	-2.500000	8.078394
-5.500000	-2.500000	1.477041
-1.500000	-2.500000	278.122
2.500000	-2.500000	302.176
6.500000	-2.500000	32.5123
10.5	-2.500000	296.161
14.5	-2.500000	153.079
18.5	-2.500000	155.764
22.5	-2.500000	153.693
26.5	-2.500000	172.595
30.5	-2.500000	12.0182
34.5	-2.500000	313.603
-28	-2.000000	91.0962
-24	-2.000000	2.054350
-20	-2.000000	17.6378
-16	-2.000000	282.773
-12	-2.000000	17.0282
-8.000000	-2.000000	15.4523
-4.000000	-2.000000	0.000000
0.000000	-2.000000	281.59
4.000000	-2.000000	4.668002
8.000000	-2.000000	15.2431
12	-2.000000	187.103
16	-2.000000	150.263
20	-2.000000	152.647
24	-2.000000	167.012
28	-2.000000	316.409
32	-2.000000	33.0059
36	-2.000000	275.195
-26.5	-1.500000	6.136485
-22.5	-1.500000	3.034426
-18.5	-1.500000	209.824
-14.5	-1.500000	279.36
-10.5	-1.500000	74.596
-6.500000	-1.500000	0.385335
-2.500000	-1.500000	22.1898
1.500000	-1.500000	267.265
5.500000	-1.500000	108.5
9.500000	-1.500000	127.398
13.5	-1.500000	269.207
17.5	-1.500000	164.548
21.5	-1.500000	130.935
25.5	-1.500000	158.565
29.5	-1.500000	232.139
33.5	-1.500000	10.4778
37.5	-1.500000	369.568
-25	-1.000000	6.068012
-21	-1.000000	3.141898
-17	-1.000000	270.663
-13	-1.000000	46.5652
-9.000000	-1.000000	333.456
-5.000000	-1.000000	0.377137
-1.000000	-1.000000	226.342
3.000000	-1.000000	5.608612
7.000000	-1.000000	155.575
11	-1.000000	248.112
15	-1.000000	176.806
19	-1.000000	147.29
23	-1.000000	141.612
27	-1.000000	198.401
31	-1.000000	344.275
35	-1.000000	325.081
-27.5	-0.500000	54.7296
-23.5	-0.500000	4.384027
-19.5	-0.500000	52.7242
-15.5	-0.500000	261.112
-11.5	-0.500000	342.962
-7.500000	-0.500000	14.0407
-3.500000	-0.500000	13.2437
0.500000	-0.500000	127.516
4.500000	-0.500000	32.0985
8.500000	-0.500000	92.4229
12.5	-0.500000	184.826
16.5	-0.500000	174.07
20.5	-0.500000	123.533
24.5	-0.500000	175.177
28.5	-0.500000	317.348
32.5	-0.500000	12.2074
36.5	-0.500000	89.8996
-26	0.000000	149.898
-22	0.000000	9.783244
-18	0.000000	259.903
-14	0.000000	282.382
-10	0.000000	300.339
-6.000000	0.000000	0.960767
-2.000000	0.000000	191.654
2.000000	0.000000	9.747440
6.000000	0.000000	205.389
10	0.000000	324.784
14	0.000000	171.973
18	0.000000	171.158
22	0.000000	148.7
26	0.000000	174.55
30	0.000000	256.588
34	0.000000	3.395240
38	0.000000	340.881
-24.5	0.500000	112.914
-20.5	0.500000	14.8833
-16.5	0.500000	235.804
-12.5	0.500000	350.025
-8.500000	0.500000	302.74
-4.500000	0.500000	0.000000
-0.500000	0.500000	238.6
3.500000	0.500000	152.823
7.500000	0.500000	148.95
11.5	0.500000	298.018
15.5	0.500000	176.55
19.5	0.500000	151.491
23.5	0.500000	146.728
27.5	0.500000	312.978
31.5	0.500000	108.162
35.5	0.500000	6.261456
-27	1.000000	207.984
-23	1.000000	277.212
-19	1.000000	250.738
-15	1.000000	186.407
-11	1.000000	365.167
-7.000000	1.000000	7.575851
-3.000000	1.000000	155.373
1.000000	1.000000	226.759
5.000000	1.000000	259.666
9.000000	1.000000	362.308
13	1.000000	213.056
17	1.000000	177.301
21	1.000000	167.593
25	1.000000	168.361
29	1.000000	256.083
33	1.000000	1.751520
37	1.000000	13.8079
-25.5	1.500000	264.844
-21.5	1.500000	486.185
-17.5	1.500000	248.295
-13.5	1.500000	258.573
-9.500000	1.500000	294.035
-5.500000	1.500000	2.108854
-1.500000	1.500000	146.069
2.500000	1.500000	96.0781
6.500000	1.500000	225.796
10.5	1.500000	342.851
14.5	1.500000	204.54
18.5	1.500000	157.891
22.5	1.500000	143.828
26.5	1.500000	211.672
30.5	1.500000	289.032
34.5	1.500000	0.000000
-28	2.000000	243.968
-24	2.000000	204.059
-20	2.000000	81.5647
-16	2.000000	187.91
-12	2.000000	281.648
-8.000000	2.000000	209.314
-4.000000	2.000000	64.245
0.000000	2.000000	171.903
4.000000	2.000000	316.751
8.000000	2.000000	107.58
12	2.000000	241.663
16	2.000000	225.431
20	2.000000	159.25
24	2.000000	149.405
28	2.000000	277.561
32	2.000000	8.201266
36	2.000000	15.1927
-26.5	2.500000	216.993
-22.5	2.500000	416.377
-18.5	2.500000	305.378
-14.5	2.500000	298.126
-10.5	2.500000	294.204
-6.500000	2.500000	42.8775
-2.500000	2.500000	102.034
1.500000	2.500000	254.629
5.500000	2.500000	276.722
9.500000	2.500000	215.949
13.5	2.500000	219.09
17.5	2.500000	160.499
21.5	2.500000	150.386
25.5	2.500000	158.622
29.5	2.500000	298.811
33.5	2.500000	2.159339
37.5	2.500000	16.7019
-25	3.000000	151.953
-21	3.000000	250.559
-17	3.000000	297.398
-13	3.000000	301.854
-9.000000	3.000000	224.939
-5.000000	3.000000	31.5028
-1.000000	3.000000	105.091
3.000000	3.000000	228.895
7.000000	3.000000	258.644
11	3.000000	299.504
15	3.000000	196.552
19	3.000000	197.634
23	3.000000	191.117
27	3.000000	232.843
31	3.000000	267.075
35	3.000000	3.781954
-27.5	3.500000	221.691
-23.5	3.500000	229.534
-19.5	3.500000	347.976
-15.5	3.500000	292.346
-11.5	3.500000	285.245
-7.500000	3.500000	281.042
-3.500000	3.500000	216.614
0.500000	3.500000	258.561
4.500000	3.500000	186.297
8.500000	3.500000	113.72
12.5	3.500000	325.899
16.5	3.500000	189.281
20.5	3.500000	155.366
24.5	3.500000	153.017
28.5	3.500000	305.381
32.5	3.500000	1.027938
36.5	3.500000	335.623
-26	4.000000	202.416
-22	4.000000	82.5935
-18	4.000000	374.169
-14	4.000000	234.387
-10	4.000000	275.364
-6.000000	4.000000	165.612
-2.000000	4.000000	193.764
2.000000	4.000000	126.99
6.000000	4.000000	244.082
10	4.000000	224.956
14	4.000000	331.917
18	4.000000	168.315
22	4.000000	203.33
26	4.000000	176.437
30	4.000000	262.044
34	4.000000	5.003444
38	4.000000	189.586
-24.5	4.500000	53.4274
-20.5	4.500000	425.146
-16.5	4.500000	271.618
-12.5	4.500000	289.12
-8.500000	4.500000	228.759
-4.500000	4.500000	149.175
-0.500000	4.500000	225.495
3.500000	4.500000	164.638
7.500000	4.500000	215.985
11.5	4.500000	243.123
15.5	4.500000	294.17
19.5	4.500000	161.811
23.5	4.500000	185.503
27.5	4.500000	182.791
31.5	4.500000	11.7817
35.5	4.500000	136.518
-27	5.000000	308.302
-23	5.000000	233.812
-19	5.000000	235.832
-15	5.000000	262.817
-11	5.000000	311.683
-7.000000	5.000000	180.245
-3.000000	5.000000	128.688
1.000000	5.000000	252.063
5.000000	5.000000	170.458
9.000000	5.000000	173.153
13	5.000000	314.332
17	5.000000	273.496
21	5.000000	151.812
25	5.000000	115.396
29	5.000000	249.433
33	5.000000	25.0053
37	5.000000	223.994
-25.5	5.500000	141.016
-21.5	5.500000	157.303
-17.5	5.500000	274.638
-13.5	5.500000	194.756
-9.500000	5.500000	298.058
-5.500000	5.500000	181.978
-1.500000	5.500000	171.272
2.500000	5.500000	212.409
6.500000	5.500000	227.237
10.5	5.500000	231.765
14.5	5.500000	360.791
18.5	5.500000	242.186
22.5	5.500000	149.258
26.5	5.500000	134.174
30.5	5.500000	179.159
34.5	5.500000	300.067
-28	6.000000	215.567
-24	6.000000	43.7363
-20	6.000000	404.865
-16	6.000000	314.54
-12	6.000000	210.236
-8.000000	6.000000	311.553
-4.000000	6.000000	178.805
0.000000	6.000000	243.292
4.000000	6.000000	197.362
8.000000	6.000000	234.838
12	6.000000	193.947
16	6.000000	290.3
20	6.000000	164.714
24	6.000000	138.877
28	6.000000	207.525
32	6.000000	82.9699
36	6.000000	242.603
-26.5	6.500000	89.1598
-22.5	6.500000	405.904
-18.5	6.500000	316.055
-14.5	6.500000	271.726
-10.5	6.500000	217.192
-6.500000	6.500000	233.194
-2.500000	6.500000	179.829
1.500000	6.500000	230.941
5.500000	6.500000	270.286
9.500000	6.500000	211.964
13.5	6.500000	343.102
17.5	6.500000	288.859
21.5	6.500000	150.21
25.5	6.500000	160.873
29.5	6.500000	176.837
33.5	6.500000	264.775
37.5	6.500000	227.783
-25	7.000000	4.665164
-21	7.000000	278.624
-17	7.000000	272.972
-13	7.000000	206.545
-9.000000	7.000000	231.018
-5.000000	7.000000	277.024
-1.000000	7.000000	269.853
3.000000	7.000000	197.89
7.000000	7.000000	212.383
11	7.000000	178.79
15	7.000000	267.027
19	7.000000	339.518
23	7.000000	141.933
27	7.000000	143.637
31	7.000000	235.147
35	7.000000	225.148
-27.5	7.500000	25.1064
-23.5	7.500000	45.8538
-19.5	7.500000	398.979
-15.5	7.500000	353.16
-11.5	7.500000	179.774
-7.500000	7.500000	221.195
-3.500000	7.500000	185.085
0.500000	7.500000	248.844
4.500000	7.500000	222.179
8.500000	7.500000	227.587
12.5	7.500000	362.601
16.5	7.500000	184.303
20.5	7.500000	164.469
24.5	7.500000	192.374
28.5	7.500000	266.052
32.5	7.500000	292.144
36.5	7.500000	194.489
-26	8.000000	17.9184
-22	8.000000	283.653
-18	8.000000	287.425
-14	8.000000	360.663
-10	8.000000	220.234
-6.000000	8.000000	246.382
-2.000000	8.000000	227.378
2.000000	8.000000	266.374
6.000000	8.000000	259.064
10	8.000000	235.721
14	8.000000	370.605
18	8.000000	186.644
22	8.000000	133.022
26	8.000000	198.425
30	8.000000	182.833
34	8.000000	247.853
38	8.000000	324.371
-24.5	8.500000	1.044398
-20.5	8.500000	365.492
-16.5	8.500000	354.777
-12.5	8.500000	246.487
-8.500000	8.500000	244.423
-4.500000	8.500000	264.32
-0.500000	8.500000	306.041
3.500000	8.500000	270.608
7.500000	8.500000	220.839
11.5	8.500000	353.982
15.5	8.500000	230.839
19.5	8.500000	163.865
23.5	8.500000	191.288
27.5	8.500000	153.9
31.5	8.500000	263.584
35.5	8.500000	340.993
-27	9.000000	6.815129
-23	9.000000	64.4389
-19	9.000000	244.509
-15	9.000000	392.275
-11	9.000000	213.629
-7.000000	9.000000	234.751
-3.000000	9.000000	335.196
1.000000	9.000000	258.947
5.000000	9.000000	244.437
9.000000	9.000000	340.551
13	9.000000	375.839
17	9.000000	239.472
21	9.000000	192.338
25	9.000000	215.953
29	9.000000	166.262
33	9.000000	256.606
37	9.000000	289.062
-25.5	9.500000	0.530607
-21.5	9.500000	193.402
-17.5	9.500000	230.004
-13.5	9.500000	394.231
-9.500000	9.500000	189.53
-5.500000	9.500000	234.673
-1.500000	9.500000	37.2482
2.500000	9.500000	245.449
6.500000	9.500000	300.558
10.5	9.500000	250.343
14.5	9.500000	319.385
18.5	9.500000	248.014
22.5	9.500000	170.768
26.5	9.500000	185.629
30.5	9.500000	215.187
34.5	9.500000	357.692
-28	10	1.818895
-24	10	39.4685
-20	10	277.496
-16	10	253.294
-12	10	363.879
-8.000000	10	244.344
-4.000000	10	263.165
0.000000	10	377.413
4.000000	10	30.8071
8.000000	10	382.376
12	10	282.747
16	10	338.792
20	10	321.603
24	10	202.726
28	10	192.479
32	10	245.384
36	10	357.86
-26.5	10.5	5.766340
-22.5	10.5	352.043
-18.5	10.5	20.4375
-14.5	10.5	313.046
-10.5	10.5	276.661
-6.500000	10.5	164.412
-2.500000	10.5	337.847
1.500000	10.5	368.889
5.500000	10.5	4.761411
9.500000	10.5	233.895
13.5	10.5	371.908
17.5	10.5	196.128
21.5	10.5	256.21
25.5	10.5	182.858
29.5	10.5	203.801
33.5	10.5	317.842
37.5	10.5	274.942
-25	11	4.041684
-21	11	78.8843
-17	11	293.802
-13	11	433.726
-9.000000	11	260.537
-5.000000	11	205.874
-1.000000	11	305.632
3.000000	11	117.213
7.000000	11	177.734
11	11	187.306
15	11	346.285
19	11	214.268
23	11	186.366
27	11	175.143
31	11	308.988
35	11	360.739
-27.5	11.5	80.1117
-23.5	11.5	42.1513
-19.5	11.5	30.9267
-15.5	11.5	58.1589
-11.5	11.5	379.464
-7.500000	11.5	226.045
-3.500000	11.5	330.783
0.500000	11.5	397.097
4.500000	11.5	0.088321
8.500000	11.5	323.488
12.5	11.5	347.657
16.5	11.5	261.955
20.5	11.5	364.012
24.5	11.5	187.951
28.5	11.5	178.582
32.5	11.5	373.241
36.5	11.5	310.945
-26	12	12.6033
-22	12	250.61
-18	12	34.4024
-14	12	21.6077
-10	12	318.13
-6.000000	12	267.326
-2.000000	12	360.68
2.000000	12	250.901
6.000000	12	3.543317
10	12	198.405
14	12	357.633
18	12	195.204
22	12	238.595
26	12	233.904
30	12	220.299
34	12	390.04
38	12	294.649
-24.5	12.5	0.000000
-20.5	12.5	16.1181
-16.5	12.5	9.528440
-12.5	12.5	308.253
-8.500000	12.5	277.729
-4.500000	12.5	301.879
-0.500000	12.5	331.199
3.500000	12.5	1.652550
7.500000	12.5	271.933
11.5	12.5	332.967
15.5	12.5	270.248
19.5	12.5	255.691
23.5	12.5	219.826
27.5	12.5	238.135
31.5	12.5	347.99
35.5	12.5	379.696
-27	13	4.808167
-23	13	3.958822
-19	13	0.185768
-15	13	1.225217
-11	13	335.736
-7.000000	13	262.029
-3.000000	13	365.203
1.000000	13	360.84
5.000000	13	2.781298
9.000000	13	327.517
13	13	243.042
17	13	251.736
21	13	339.235
25	13	233.773
29	13	233.201
33	13	293.167
37	13	380.956
-25.5	13.5	4.707207
-21.5	13.5	17.5246
-17.5	13.5	3.236901
-13.5	13.5	10.1988
-9.500000	13.5	342.694
-5.500000	13.5	264.792
-1.500000	13.5	289.79
2.500000	13.5	14.7421
6.500000	13.5	0.000000
10.5	13.5	366.915
14.5	13.5	245.328
18.5	13.5	190.915
22.5	13.5	280.701
26.5	13.5	247.306
30.5	13.5	313.521
34.5	13.5	251.045
-28	14	2.205644
-24	14	1.214900
-20	14	7.831904
-16	14	2.517749
-12	14	273.506
-8.000000	14	268.935
-4.000000	14	334.674
0.000000	14	225.253
4.000000	14	3.316211
8.000000	14	11.3599
12	14	302.819
16	14	264.516
20	14	387.013
24	14	209.615
28	14	232.215
32	14	310.467
36	14	329.08
-26.5	14.5	0.567135
-22.5	14.5	45.4268
-18.5	14.5	0.000000
-14.5	14.5	0.000000
-10.5	14.5	184.094
-6.500000	14.5	188.798
-2.500000	14.5	351.672
1.500000	14.5	16.7233
5.500000	14.5	1.101277
9.500000	14.5	59.1943
13.5	14.5	146.02
17.5	14.5	265.2
21.5	14.5	353.901
25.5	14.5	235.663
29.5	14.5	232.516
33.5	14.5	323.352
37.5	14.5	350.086
-25	15	0.000000
-21	15	1.286792
-17	15	29.5374
-13	15	4.120330
-9.000000	15	224.299
-5.000000	15	13.6263
-1.000000	15	284.702
3.000000	15	8.477293
7.000000	15	0.251872
11	15	208.7
15	15	286.192
19	15	242.423
23	15	363.303
27	15	256.935
31	15	230.871
35	15	239.574
-27.5	15.5	10.6942
-23.5	15.5	0.980922
-19.5	15.5	0.862090
-15.5	15.5	13.8731
-11.5	15.5	62.473
-7.500000	15.5	8.487590
-3.500000	15.5	14.0377
0.500000	15.5	182.801
4.500000	15.5	21.8082
8.500000	15.5	12.0365
12.5	15.5	358.498
16.5	15.5	315.452
20.5	15.5	363.227
24.5	15.5	280.097
28.5	15.5	273.948
32.5	15.5	272.342
36.5	15.5	75.1835
-26	16	3.360811
-22	16	1.186984
-18	16	0.000000
-14	16	2.712737
-10	16	268.023
-6.000000	16	1.999910
-2.000000	16	10.7193
2.000000	16	112.589
6.000000	16	0.939301
10	16	304.995
14	16	236.669
18	16	336.059
22	16	400.217
26	16	345.507
30	16	349.909
34	16	343.213
38	16	23.1916
-24.5	16.5	4.147560
-20.5	16.5	0.514667
-16.5	16.5	0.918230
-12.5	16.5	30.1693
-8.500000	16.5	230.129
-4.500000	16.5	27.7716
-0.500000	16.5	5.410394
3.500000	16.5	335.722
7.500000	16.5	0.991282
11.5	16.5	124.839
15.5	16.5	320.765
19.5	16.5	280.896
23.5	16.5	407.093
27.5	16.5	306.699
31.5	16.5	16.1973
35.5	16.5	236.197
-27	17	1.290698
-23	17	7.369778
-19	17	0.691840
-15	17	3.053959
-11	17	305.544
-7.000000	17	0.000000
-3.000000	17	18.3702
1.000000	17	135.366
5.000000	17	120.804
9.000000	17	107.683
13	17	169.473
17	17	349.651
21	17	327.91
25	17	360.945
29	17	273.746
33	17	191.983
37	17	2.609196
-25.5	17.5	0.000000
-21.5	17.5	3.349697
-17.5	17.5	0.000000
-13.5	17.5	24.8806
-9.500000	17.5	359.678
-5.500000	17.5	4.946092
-1.500000	17.5	1.466895
2.500000	17.5	334.96
6.500000	17.5	0.710389
10.5	17.5	138.256
14.5	17.5	227.666
18.5	17.5	217.786
22.5	17.5	290.236
26.5	17.5	43.2676
30.5	17.5	16.6738
34.5	17.5	245.019
-28	18	3.946100
-24	18	0.000000
-20	18	0.354945
-16	18	0.190242
-12	18	231.561
-8.000000	18	50.0393
-4.000000	18	1.878189
0.000000	18	27.3407
4.000000	18	210.325
8.000000	18	5.518132
12	18	374.39
16	18	229.216
20	18	183.083
24	18	299.77
28	18	259.224
32	18	7.459528
36	18	5.932295
-26.5	18.5	61.392
-22.5	18.5	2.779253
-18.5	18.5	0.490992
-14.5	18.5	76.819
-10.5	18.5	402.222
-6.500000	18.5	0.672768
-2.500000	18.5	11.2516
1.500000	18.5	346.433
5.500000	18.5	11.9504
9.500000	18.5	29.9214
13.5	18.5	340.991
17.5	18.5	284.847
21.5	18.5	325.829
25.5	18.5	260.658
29.5	18.5	8.034263
33.5	18.5	64.7107
37.5	18.5	0.906445
-25	19	0.000000
-21	19	6.904405
-17	19	1.874814
-13	19	197.465
-9.000000	19	221.607
-5.000000	19	17.4779
-1.000000	19	10.8795
3.000000	19	428.834
7.000000	19	28.5044
11	19	280.597
15	19	227.923
19	19	248.762
23	19	352.756
27	19	3.844992
31	19	9.875058
35	19	47.6752
-27.5	19.5	200.73
-23.5	19.5	1.606402
-19.5	19.5	10.325
-15.5	19.5	0.405253
-11.5	19.5	114.395
-7.500000	19.5	9.304181
-3.500000	19.5	150.438
0.500000	19.5	381.764
4.500000	19.5	25.096
8.500000	19.5	2.484201
12.5	19.5	173.36
16.5	19.5	248.563
20.5	19.5	436.485
24.5	19.5	40.15
28.5	19.5	0.764890
32.5	19.5	286.962
36.5	19.5	9.589055
-26	20	9.110234
-22	20	44.3872
-18	20	0.308409
-14	20	4.349063
-10	20	313.91
-6.000000	20	137.153
-2.000000	20	170.552
2.000000	20	337.311
6.000000	20	11.9032
10	20	129.902
14	20	232.814
18	20	186.484
22	20	392.22
26	20	7.293231
30	20	5.579167
34	20	338.922
38	20	3.475601