File: data/derived_data/raman/20170920_Gr-NH2_for_Radisurf/20170920 Gr-NH for Radisurf map 1/G pos.txt
#XList		#YList		#IList
-28	-22	1585.82
-24	-22	1574.16
-20	-22	1586.24
-16	-22	1575.57
-12	-22	1584.03
-8.000000	-22	1574.31
-4.000000	-22	1576.02
0.000000	-22	1577.68
4.000000	-22	1585.01
8.000000	-22	1577.56
12	-22	1574.91
16	-22	1575.18
20	-22	1574.9
24	-22	1587.07
28	-22	1599.39
32	-22	1580.21
36	-22	1586.81
-26.5	-21.5	1600
-22.5	-21.5	1573.06
-18.5	-21.5	1577.28
-14.5	-21.5	1580.18
-10.5	-21.5	1576.2
-6.500000	-21.5	1574.12
-2.500000	-21.5	1577.67
1.500000	-21.5	1585.38
5.500000	-21.5	1574.34
9.500000	-21.5	1574.29
13.5	-21.5	1576.47
17.5	-21.5	1579.02
21.5	-21.5	1575
25.5	-21.5	1580.22
29.5	-21.5	1579.9
33.5	-21.5	1590.18
37.5	-21.5	1600
-25	-21	1573.71
-21	-21	1570.98
-17	-21	1577.83
-13	-21	1580.86
-9.000000	-21	1575.08
-5.000000	-21	1583.09
-1.000000	-21	1576.48
3.000000	-21	1582.46
7.000000	-21	1570.7
11	-21	1574.67
15	-21	1574.53
19	-21	1578.99
23	-21	1578.34
27	-21	1581.05
31	-21	1579.78
35	-21	1600
-27.5	-20.5	1600
-23.5	-20.5	1570
-19.5	-20.5	1570
-15.5	-20.5	1574.03
-11.5	-20.5	1579.23
-7.500000	-20.5	1576.18
-3.500000	-20.5	1577.75
0.500000	-20.5	1582.3
4.500000	-20.5	1582.1
8.500000	-20.5	1573.79
12.5	-20.5	1571.75
16.5	-20.5	1575.47
20.5	-20.5	1576.89
24.5	-20.5	1582.04
28.5	-20.5	1579.12
32.5	-20.5	1578.15
36.5	-20.5	1570
-26	-20	1572.41
-22	-20	1577.33
-18	-20	1570
-14	-20	1581.95
-10	-20	1574.84
-6.000000	-20	1584.09
-2.000000	-20	1585.32
2.000000	-20	1584.32
6.000000	-20	1574.71
10	-20	1572.35
14	-20	1575.9
18	-20	1584.98
22	-20	1575
26	-20	1589.03
30	-20	1579.72
34	-20	1570
38	-20	1582.99
-24.5	-19.5	1570
-20.5	-19.5	1570
-16.5	-19.5	1570
-12.5	-19.5	1585.68
-8.500000	-19.5	1579.28
-4.500000	-19.5	1579.38
-0.500000	-19.5	1579.82
3.500000	-19.5	1579.62
7.500000	-19.5	1571.93
11.5	-19.5	1573.57
15.5	-19.5	1574.34
19.5	-19.5	1576.91
23.5	-19.5	1573.08
27.5	-19.5	1578.99
31.5	-19.5	1580.35
35.5	-19.5	1570
-27	-19	1593.99
-23	-19	1570
-19	-19	1570
-15	-19	1575.19
-11	-19	1600
-7.000000	-19	1581.93
-3.000000	-19	1579.47
1.000000	-19	1583.17
5.000000	-19	1575.61
9.000000	-19	1572.77
13	-19	1576.8
17	-19	1578.47
21	-19	1576.96
25	-19	1585.61
29	-19	1578.94
33	-19	1600
37	-19	1588.97
-25.5	-18.5	1600
-21.5	-18.5	1580.51
-17.5	-18.5	1575.54
-13.5	-18.5	1587.15
-9.500000	-18.5	1583.77
-5.500000	-18.5	1576.6
-1.500000	-18.5	1578.73
2.500000	-18.5	1577.24
6.500000	-18.5	1573.42
10.5	-18.5	1573.8
14.5	-18.5	1576.94
18.5	-18.5	1579.97
22.5	-18.5	1574.09
26.5	-18.5	1575.88
30.5	-18.5	1580.11
34.5	-18.5	1596.48
-28	-18	1585.55
-24	-18	1597.02
-20	-18	1585.04
-16	-18	1575.47
-12	-18	1578.72
-8.000000	-18	1578.55
-4.000000	-18	1581.05
0.000000	-18	1582.76
4.000000	-18	1579.2
8.000000	-18	1570.09
12	-18	1572.32
16	-18	1572.46
20	-18	1574.39
24	-18	1585.24
28	-18	1584.77
32	-18	1584.2
36	-18	1570
-26.5	-17.5	1574.53
-22.5	-17.5	1570
-18.5	-17.5	1578.5
-14.5	-17.5	1576
-10.5	-17.5	1586.32
-6.500000	-17.5	1583.89
-2.500000	-17.5	1578.9
1.500000	-17.5	1577.75
5.500000	-17.5	1570.01
9.500000	-17.5	1570
13.5	-17.5	1577.02
17.5	-17.5	1580.66
21.5	-17.5	1575.28
25.5	-17.5	1577.66
29.5	-17.5	1585.24
33.5	-17.5	1594.75
37.5	-17.5	1582.98
-25	-17	1600
-21	-17	1584.9
-17	-17	1578.08
-13	-17	1576.88
-9.000000	-17	1589.1
-5.000000	-17	1582.36
-1.000000	-17	1580.94
3.000000	-17	1577.56
7.000000	-17	1571.56
11	-17	1571.96
15	-17	1574.66
19	-17	1573.04
23	-17	1582.42
27	-17	1576.5
31	-17	1579.29
35	-17	1578.98
-27.5	-16.5	1580.33
-23.5	-16.5	1570
-19.5	-16.5	1575.53
-15.5	-16.5	1573.75
-11.5	-16.5	1581.97
-7.500000	-16.5	1580.13
-3.500000	-16.5	1576.62
0.500000	-16.5	1579.68
4.500000	-16.5	1573.19
8.500000	-16.5	1574.02
12.5	-16.5	1576.38
16.5	-16.5	1573.96
20.5	-16.5	1580.44
24.5	-16.5	1578.19
28.5	-16.5	1581.76
32.5	-16.5	1580.77
36.5	-16.5	1589.58
-26	-16	1579.23
-22	-16	1600
-18	-16	1576.22
-14	-16	1579.67
-10	-16	1579.14
-6.000000	-16	1570.29
-2.000000	-16	1579.74
2.000000	-16	1584.76
6.000000	-16	1575.04
10	-16	1571.82
14	-16	1575.8
18	-16	1577.63
22	-16	1583.51
26	-16	1575.57
30	-16	1580.82
34	-16	1585.06
38	-16	1592.75
-24.5	-15.5	1599.76
-20.5	-15.5	1592.56
-16.5	-15.5	1570.95
-12.5	-15.5	1579.27
-8.500000	-15.5	1572.92
-4.500000	-15.5	1570.78
-0.500000	-15.5	1579.28
3.500000	-15.5	1573.73
7.500000	-15.5	1571.75
11.5	-15.5	1573.59
15.5	-15.5	1576.31
19.5	-15.5	1581.45
23.5	-15.5	1587.33
27.5	-15.5	1581.18
31.5	-15.5	1579.08
35.5	-15.5	1582.47
-27	-15	1580.69
-23	-15	1598.32
-19	-15	1571.08
-15	-15	1571.41
-11	-15	1570
-7.000000	-15	1572.07
-3.000000	-15	1572.47
1.000000	-15	1578.84
5.000000	-15	1573.75
9.000000	-15	1571.43
13	-15	1577.04
17	-15	1574.7
21	-15	1586.92
25	-15	1585.35
29	-15	1580.36
33	-15	1580.27
37	-15	1577.41
-25.5	-14.5	1586.01
-21.5	-14.5	1584.45
-17.5	-14.5	1570
-13.5	-14.5	1575.28
-9.500000	-14.5	1574.49
-5.500000	-14.5	1570
-1.500000	-14.5	1575.01
2.500000	-14.5	1575.34
6.500000	-14.5	1577.03
10.5	-14.5	1583.62
14.5	-14.5	1576.09
18.5	-14.5	1574.36
22.5	-14.5	1570
26.5	-14.5	1582.59
30.5	-14.5	1580.4
34.5	-14.5	1578.57
-28	-14	1584.24
-24	-14	1600
-20	-14	1588.1
-16	-14	1570
-12	-14	1573.96
-8.000000	-14	1571.09
-4.000000	-14	1570
0.000000	-14	1579.46
4.000000	-14	1575.29
8.000000	-14	1572
12	-14	1574.71
16	-14	1571.53
20	-14	1590.71
24	-14	1574.81
28	-14	1579.97
32	-14	1570.76
36	-14	1576.31
-26.5	-13.5	1572.59
-22.5	-13.5	1575.01
-18.5	-13.5	1570.83
-14.5	-13.5	1573.69
-10.5	-13.5	1586.69
-6.500000	-13.5	1570
-2.500000	-13.5	1570
1.500000	-13.5	1576.6
5.500000	-13.5	1578.14
9.500000	-13.5	1579.76
13.5	-13.5	1571.44
17.5	-13.5	1570.74
21.5	-13.5	1595
25.5	-13.5	1570
29.5	-13.5	1578.68
33.5	-13.5	1579.12
37.5	-13.5	1578.17
-25	-13	1572.5
-21	-13	1574.9
-17	-13	1571.72
-13	-13	1573.16
-9.000000	-13	1570
-5.000000	-13	1571.05
-1.000000	-13	1576.65
3.000000	-13	1577.03
7.000000	-13	1577.28
11	-13	1588.07
15	-13	1577.52
19	-13	1579.52
23	-13	1580.08
27	-13	1578.63
31	-13	1582.18
35	-13	1578.68
-27.5	-12.5	1583.53
-23.5	-12.5	1600
-19.5	-12.5	1570
-15.5	-12.5	1570
-11.5	-12.5	1577.34
-7.500000	-12.5	1570
-3.500000	-12.5	1573.19
0.500000	-12.5	1577.95
4.500000	-12.5	1577.05
8.500000	-12.5	1576.11
12.5	-12.5	1583.84
16.5	-12.5	1572.06
20.5	-12.5	1584.76
24.5	-12.5	1570
28.5	-12.5	1576.49
32.5	-12.5	1582.89
36.5	-12.5	1580.48
-26	-12	1577.42
-22	-12	1600
-18	-12	1570
-14	-12	1570
-10	-12	1573.46
-6.000000	-12	1570
-2.000000	-12	1571.15
2.000000	-12	1576.57
6.000000	-12	1577.55
10	-12	1584.02
14	-12	1586.32
18	-12	1572.04
22	-12	1571.18
26	-12	1572.13
30	-12	1575.63
34	-12	1578.33
38	-12	1579.71
-24.5	-11.5	1578.45
-20.5	-11.5	1573.53
-16.5	-11.5	1571.23
-12.5	-11.5	1572.8
-8.500000	-11.5	1570.64
-4.500000	-11.5	1572.11
-0.500000	-11.5	1574.88
3.500000	-11.5	1573.45
7.500000	-11.5	1580.26
11.5	-11.5	1571.41
15.5	-11.5	1586.53
19.5	-11.5	1577.41
23.5	-11.5	1570
27.5	-11.5	1585.87
31.5	-11.5	1585.25
35.5	-11.5	1578.65
-27	-11	1585.58
-23	-11	1595.75
-19	-11	1570
-15	-11	1571.28
-11	-11	1576.08
-7.000000	-11	1575.11
-3.000000	-11	1570
1.000000	-11	1573.39
5.000000	-11	1577.7
9.000000	-11	1578.89
13	-11	1600
17	-11	1570.05
21	-11	1577.64
25	-11	1577.22
29	-11	1586.77
33	-11	1588.67
37	-11	1578.08
-25.5	-10.5	1597.34
-21.5	-10.5	1582.39
-17.5	-10.5	1570
-13.5	-10.5	1581.82
-9.500000	-10.5	1570
-5.500000	-10.5	1576.71
-1.500000	-10.5	1581.46
2.500000	-10.5	1575.11
6.500000	-10.5	1579.93
10.5	-10.5	1577.45
14.5	-10.5	1600
18.5	-10.5	1577.55
22.5	-10.5	1588.71
26.5	-10.5	1570
30.5	-10.5	1583.16
34.5	-10.5	1586.3
-28	-10	1586.26
-24	-10	1577.66
-20	-10	1579.39
-16	-10	1570
-12	-10	1581.01
-8.000000	-10	1575.54
-4.000000	-10	1573.33
0.000000	-10	1580.8
4.000000	-10	1579.53
8.000000	-10	1579.86
12	-10	1583.64
16	-10	1595.71
20	-10	1578.77
24	-10	1573.45
28	-10	1600
32	-10	1600
36	-10	1581.48
-26.5	-9.500000	1600
-22.5	-9.500000	1570
-18.5	-9.500000	1570
-14.5	-9.500000	1570
-10.5	-9.500000	1582.26
-6.500000	-9.500000	1578.4
-2.500000	-9.500000	1573.4
1.500000	-9.500000	1578.34
5.500000	-9.500000	1580.27
9.500000	-9.500000	1580.11
13.5	-9.500000	1588.32
17.5	-9.500000	1579.68
21.5	-9.500000	1583.91
25.5	-9.500000	1576.53
29.5	-9.500000	1581.62
33.5	-9.500000	1578.72
37.5	-9.500000	1575.69
-25	-9.000000	1589.97
-21	-9.000000	1584.98
-17	-9.000000	1570
-13	-9.000000	1572
-9.000000	-9.000000	1570
-5.000000	-9.000000	1579.7
-1.000000	-9.000000	1575.7
3.000000	-9.000000	1579.26
7.000000	-9.000000	1580.65
11	-9.000000	1578.71
15	-9.000000	1584.45
19	-9.000000	1580.95
23	-9.000000	1570
27	-9.000000	1578.23
31	-9.000000	1589.58
35	-9.000000	1584.3
-27.5	-8.500000	1592.61
-23.5	-8.500000	1570
-19.5	-8.500000	1582.57
-15.5	-8.500000	1570
-11.5	-8.500000	1582.17
-7.500000	-8.500000	1571.48
-3.500000	-8.500000	1576.34
0.500000	-8.500000	1576.19
4.500000	-8.500000	1580.38
8.500000	-8.500000	1580.5
12.5	-8.500000	1577.91
16.5	-8.500000	1581.9
20.5	-8.500000	1577.95
24.5	-8.500000	1575.4
28.5	-8.500000	1581.44
32.5	-8.500000	1577.34
36.5	-8.500000	1581.57
-26	-8.000000	1600
-22	-8.000000	1570
-18	-8.000000	1571.67
-14	-8.000000	1570
-10	-8.000000	1572.41
-6.000000	-8.000000	1579.27
-2.000000	-8.000000	1583.11
2.000000	-8.000000	1573.32
6.000000	-8.000000	1580.66
10	-8.000000	1578.18
14	-8.000000	1582.96
18	-8.000000	1578.52
22	-8.000000	1575.1
26	-8.000000	1576.89
30	-8.000000	1577.64
34	-8.000000	1579.11
38	-8.000000	1572.12
-24.5	-7.500000	1572.51
-20.5	-7.500000	1573.17
-16.5	-7.500000	1570
-12.5	-7.500000	1570
-8.500000	-7.500000	1574.95
-4.500000	-7.500000	1579.35
-0.500000	-7.500000	1574.28
3.500000	-7.500000	1579.08
7.500000	-7.500000	1580.31
11.5	-7.500000	1583.74
15.5	-7.500000	1577.93
19.5	-7.500000	1577.6
23.5	-7.500000	1581.8
27.5	-7.500000	1580.09
31.5	-7.500000	1583.95
35.5	-7.500000	1577.11
-27	-7.000000	1570
-23	-7.000000	1570
-19	-7.000000	1576.1
-15	-7.000000	1570
-11	-7.000000	1570.46
-7.000000	-7.000000	1576.32
-3.000000	-7.000000	1576.68
1.000000	-7.000000	1572.56
5.000000	-7.000000	1580.29
9.000000	-7.000000	1576.18
13	-7.000000	1578.83
17	-7.000000	1573.87
21	-7.000000	1575.67
25	-7.000000	1582.99
29	-7.000000	1579.31
33	-7.000000	1574.42
37	-7.000000	1583.01
-25.5	-6.500000	1570
-21.5	-6.500000	1571.2
-17.5	-6.500000	1570
-13.5	-6.500000	1570
-9.500000	-6.500000	1573.82
-5.500000	-6.500000	1573.58
-1.500000	-6.500000	1572.14
2.500000	-6.500000	1579.93
6.500000	-6.500000	1581.31
10.5	-6.500000	1580.79
14.5	-6.500000	1579.91
18.5	-6.500000	1572.01
22.5	-6.500000	1575.6
26.5	-6.500000	1579.92
30.5	-6.500000	1570.11
34.5	-6.500000	1577.24
-28	-6.000000	1580.17
-24	-6.000000	1570
-20	-6.000000	1575.64
-16	-6.000000	1570
-12	-6.000000	1571.56
-8.000000	-6.000000	1570.45
-4.000000	-6.000000	1580.11
0.000000	-6.000000	1576.09
4.000000	-6.000000	1580.21
8.000000	-6.000000	1575.5
12	-6.000000	1574.58
16	-6.000000	1577.48
20	-6.000000	1573.65
24	-6.000000	1570
28	-6.000000	1578.23
32	-6.000000	1577.82
36	-6.000000	1582.95
-26.5	-5.500000	1587.02
-22.5	-5.500000	1570
-18.5	-5.500000	1578.13
-14.5	-5.500000	1570
-10.5	-5.500000	1600
-6.500000	-5.500000	1570
-2.500000	-5.500000	1588.62
1.500000	-5.500000	1582.26
5.500000	-5.500000	1579.57
9.500000	-5.500000	1576.47
13.5	-5.500000	1577.66
17.5	-5.500000	1571.42
21.5	-5.500000	1573.33
25.5	-5.500000	1581.12
29.5	-5.500000	1577.81
33.5	-5.500000	1580.44
37.5	-5.500000	1578.04
-25	-5.000000	1587.84
-21	-5.000000	1571.59
-17	-5.000000	1579
-13	-5.000000	1573.93
-9.000000	-5.000000	1591.01
-5.000000	-5.000000	1587.21
-1.000000	-5.000000	1570.88
3.000000	-5.000000	1576.01
7.000000	-5.000000	1585
11	-5.000000	1573.2
15	-5.000000	1570
19	-5.000000	1571.8
23	-5.000000	1576.97
27	-5.000000	1580.55
31	-5.000000	1570
35	-5.000000	1573.85
-27.5	-4.500000	1582.08
-23.5	-4.500000	1570
-19.5	-4.500000	1576.61
-15.5	-4.500000	1578.6
-11.5	-4.500000	1586.16
-7.500000	-4.500000	1583.85
-3.500000	-4.500000	1594.09
0.500000	-4.500000	1582.64
4.500000	-4.500000	1573.29
8.500000	-4.500000	1577.44
12.5	-4.500000	1574.21
16.5	-4.500000	1570
20.5	-4.500000	1572.53
24.5	-4.500000	1576.34
28.5	-4.500000	1576.06
32.5	-4.500000	1580.71
36.5	-4.500000	1576.78
-26	-4.000000	1585.55
-22	-4.000000	1570
-18	-4.000000	1577.73
-14	-4.000000	1573.59
-10	-4.000000	1570
-6.000000	-4.000000	1600
-2.000000	-4.000000	1571.79
2.000000	-4.000000	1582.32
6.000000	-4.000000	1586.47
10	-4.000000	1579.23
14	-4.000000	1578.26
18	-4.000000	1577.09
22	-4.000000	1575.89
26	-4.000000	1576.45
30	-4.000000	1574.38
34	-4.000000	1580.42
38	-4.000000	1579.07
-24.5	-3.500000	1588.21
-20.5	-3.500000	1574.6
-16.5	-3.500000	1577.45
-12.5	-3.500000	1583.24
-8.500000	-3.500000	1599.87
-4.500000	-3.500000	1578.74
-0.500000	-3.500000	1580.28
3.500000	-3.500000	1580.67
7.500000	-3.500000	1580.32
11.5	-3.500000	1576.82
15.5	-3.500000	1576.45
19.5	-3.500000	1577.34
23.5	-3.500000	1576.21
27.5	-3.500000	1579.53
31.5	-3.500000	1588.11
35.5	-3.500000	1583.62
-27	-3.000000	1582.16
-23	-3.000000	1584.65
-19	-3.000000	1570.28
-15	-3.000000	1578.56
-11	-3.000000	1595.56
-7.000000	-3.000000	1570
-3.000000	-3.000000	1582.24
1.000000	-3.000000	1577.18
5.000000	-3.000000	1575.38
9.000000	-3.000000	1587.77
13	-3.000000	1578.21
17	-3.000000	1577.51
21	-3.000000	1576.47
25	-3.000000	1579.84
29	-3.000000	1578.02
33	-3.000000	1588.32
37	-3.000000	1580.95
-25.5	-2.500000	1590.53
-21.5	-2.500000	1582.96
-17.5	-2.500000	1581.66
-13.5	-2.500000	1584.94
-9.500000	-2.500000	1583.7
-5.500000	-2.500000	1581.42
-1.500000	-2.500000	1570.88
2.500000	-2.500000	1576.49
6.500000	-2.500000	1579.73
10.5	-2.500000	1572.68
14.5	-2.500000	1577.5
18.5	-2.500000	1577.53
22.5	-2.500000	1576.02
26.5	-2.500000	1578.85
30.5	-2.500000	1574.69
34.5	-2.500000	1575.53
-28	-2.000000	1580.54
-24	-2.000000	1600
-20	-2.000000	1585.37
-16	-2.000000	1580.2
-12	-2.000000	1591.38
-8.000000	-2.000000	1587.35
-4.000000	-2.000000	1587.08
0.000000	-2.000000	1579.14
4.000000	-2.000000	1588.55
8.000000	-2.000000	1580.1
12	-2.000000	1574.31
16	-2.000000	1574.75
20	-2.000000	1575.97
24	-2.000000	1576.01
28	-2.000000	1577.36
32	-2.000000	1585.09
36	-2.000000	1576.36
-26.5	-1.500000	1578.31
-22.5	-1.500000	1580.13
-18.5	-1.500000	1583.49
-14.5	-1.500000	1571.81
-10.5	-1.500000	1581.46
-6.500000	-1.500000	1598.34
-2.500000	-1.500000	1583.37
1.500000	-1.500000	1577.96
5.500000	-1.500000	1579.8
9.500000	-1.500000	1570
13.5	-1.500000	1570
17.5	-1.500000	1577.4
21.5	-1.500000	1578.91
25.5	-1.500000	1578.23
29.5	-1.500000	1579.01
33.5	-1.500000	1591.28
37.5	-1.500000	1575.13
-25	-1.000000	1581.76
-21	-1.000000	1579.49
-17	-1.000000	1581.42
-13	-1.000000	1570
-9.000000	-1.000000	1570.58
-5.000000	-1.000000	1600
-1.000000	-1.000000	1572.92
3.000000	-1.000000	1589.26
7.000000	-1.000000	1570
11	-1.000000	1572.55
15	-1.000000	1578.27
19	-1.000000	1579.18
23	-1.000000	1577.23
27	-1.000000	1579.45
31	-1.000000	1576.29
35	-1.000000	1577.83
-27.5	-0.500000	1580.96
-23.5	-0.500000	1593.74
-19.5	-0.500000	1582.58
-15.5	-0.500000	1579.87
-11.5	-0.500000	1574.01
-7.500000	-0.500000	1580.88
-3.500000	-0.500000	1590.27
0.500000	-0.500000	1580.02
4.500000	-0.500000	1586.6
8.500000	-0.500000	1570
12.5	-0.500000	1578.79
16.5	-0.500000	1576.26
20.5	-0.500000	1578.26
24.5	-0.500000	1576.02
28.5	-0.500000	1574.56
32.5	-0.500000	1584.19
36.5	-0.500000	1587.11
-26	0.000000	1582.62
-22	0.000000	1577.33
-18	0.000000	1578.95
-14	0.000000	1576.36
-10	0.000000	1572.92
-6.000000	0.000000	1570
-2.000000	0.000000	1570
2.000000	0.000000	1592.48
6.000000	0.000000	1579.2
10	0.000000	1572.9
14	0.000000	1579.95
18	0.000000	1576.45
22	0.000000	1577.38
26	0.000000	1578.7
30	0.000000	1574.86
34	0.000000	1600
38	0.000000	1573.86
-24.5	0.500000	1584.75
-20.5	0.500000	1589.15
-16.5	0.500000	1581.65
-12.5	0.500000	1573.54
-8.500000	0.500000	1570.8
-4.500000	0.500000	1584.81
-0.500000	0.500000	1575.15
3.500000	0.500000	1576.95
7.500000	0.500000	1577.57
11.5	0.500000	1576.56
15.5	0.500000	1576.16
19.5	0.500000	1578.11
23.5	0.500000	1579.74
27.5	0.500000	1573.13
31.5	0.500000	1584.48
35.5	0.500000	1582.05
-27	1.000000	1580.78
-23	1.000000	1580.43
-19	1.000000	1581.04
-15	1.000000	1580.76
-11	1.000000	1573.65
-7.000000	1.000000	1577.52
-3.000000	1.000000	1572.74
1.000000	1.000000	1570
5.000000	1.000000	1581.07
9.000000	1.000000	1576
13	1.000000	1578.33
17	1.000000	1572.5
21	1.000000	1577.83
25	1.000000	1574.42
29	1.000000	1570.59
33	1.000000	1571.12
37	1.000000	1596.91
-25.5	1.500000	1581.29
-21.5	1.500000	1578.22
-17.5	1.500000	1581.33
-13.5	1.500000	1576.74
-9.500000	1.500000	1576.54
-5.500000	1.500000	1570
-1.500000	1.500000	1580.5
2.500000	1.500000	1583.93
6.500000	1.500000	1581.65
10.5	1.500000	1574.85
14.5	1.500000	1575.99
18.5	1.500000	1577.33
22.5	1.500000	1580.83
26.5	1.500000	1575.64
30.5	1.500000	1576.5
34.5	1.500000	1600
-28	2.000000	1580.98
-24	2.000000	1580.42
-20	2.000000	1581.35
-16	2.000000	1581.3
-12	2.000000	1573.05
-8.000000	2.000000	1577.47
-4.000000	2.000000	1581.21
0.000000	2.000000	1579.88
4.000000	2.000000	1572.37
8.000000	2.000000	1581.88
12	2.000000	1577.31
16	2.000000	1570.58
20	2.000000	1579.16
24	2.000000	1581.49
28	2.000000	1578.6
32	2.000000	1581.26
36	2.000000	1575.12
-26.5	2.500000	1580.04
-22.5	2.500000	1579.85
-18.5	2.500000	1573.67
-14.5	2.500000	1576.89
-10.5	2.500000	1576.29
-6.500000	2.500000	1580.37
-2.500000	2.500000	1579.22
1.500000	2.500000	1578.86
5.500000	2.500000	1572.73
9.500000	2.500000	1580.07
13.5	2.500000	1576.41
17.5	2.500000	1576.68
21.5	2.500000	1580.15
25.5	2.500000	1579.37
29.5	2.500000	1576.06
33.5	2.500000	1600
37.5	2.500000	1584.19
-25	3.000000	1580.66
-21	3.000000	1582.93
-17	3.000000	1575.52
-13	3.000000	1571.37
-9.000000	3.000000	1581.89
-5.000000	3.000000	1580.84
-1.000000	3.000000	1579.47
3.000000	3.000000	1573.82
7.000000	3.000000	1580.92
11	3.000000	1573.03
15	3.000000	1577.28
19	3.000000	1570
23	3.000000	1571.47
27	3.000000	1570.1
31	3.000000	1573.78
35	3.000000	1586.9
-27.5	3.500000	1580.76
-23.5	3.500000	1581.93
-19.5	3.500000	1572.99
-15.5	3.500000	1577.32
-11.5	3.500000	1577.58
-7.500000	3.500000	1577.48
-3.500000	3.500000	1579.63
0.500000	3.500000	1575.86
4.500000	3.500000	1576.45
8.500000	3.500000	1583.33
12.5	3.500000	1570
16.5	3.500000	1572.76
20.5	3.500000	1575.95
24.5	3.500000	1580.53
28.5	3.500000	1577.54
32.5	3.500000	1600
36.5	3.500000	1576.83
-26	4.000000	1581.62
-22	4.000000	1586.97
-18	4.000000	1574.59
-14	4.000000	1577.52
-10	4.000000	1577.41
-6.000000	4.000000	1580.93
-2.000000	4.000000	1581.4
2.000000	4.000000	1581.29
6.000000	4.000000	1579.52
10	4.000000	1582.79
14	4.000000	1572.13
18	4.000000	1579.49
22	4.000000	1570
26	4.000000	1577.95
30	4.000000	1575.14
34	4.000000	1590.8
38	4.000000	1579
-24.5	4.500000	1588.55
-20.5	4.500000	1574.59
-16.5	4.500000	1578.76
-12.5	4.500000	1575.02
-8.500000	4.500000	1578.79
-4.500000	4.500000	1581.51
-0.500000	4.500000	1581.63
3.500000	4.500000	1577.87
7.500000	4.500000	1581.33
11.5	4.500000	1574.59
15.5	4.500000	1570
19.5	4.500000	1576.09
23.5	4.500000	1572.87
27.5	4.500000	1576.49
31.5	4.500000	1586.95
35.5	4.500000	1574.11
-27	5.000000	1578.72
-23	5.000000	1580.62
-19	5.000000	1584.26
-15	5.000000	1576.45
-11	5.000000	1576.7
-7.000000	5.000000	1580.3
-3.000000	5.000000	1581.59
1.000000	5.000000	1577.33
5.000000	5.000000	1578.39
9.000000	5.000000	1582.33
13	5.000000	1572.25
17	5.000000	1576.06
21	5.000000	1578.39
25	5.000000	1578.34
29	5.000000	1578.06
33	5.000000	1582.97
37	5.000000	1572.77
-25.5	5.500000	1582.15
-21.5	5.500000	1579.66
-17.5	5.500000	1582.5
-13.5	5.500000	1576.27
-9.500000	5.500000	1572.19
-5.500000	5.500000	1579.85
-1.500000	5.500000	1581.41
2.500000	5.500000	1575.8
6.500000	5.500000	1575.64
10.5	5.500000	1583.37
14.5	5.500000	1571.53
18.5	5.500000	1575.53
22.5	5.500000	1581.1
26.5	5.500000	1579.57
30.5	5.500000	1577.27
34.5	5.500000	1576.85
-28	6.000000	1580.84
-24	6.000000	1585.19
-20	6.000000	1578.11
-16	6.000000	1572.44
-12	6.000000	1578.11
-8.000000	6.000000	1578.89
-4.000000	6.000000	1580.54
0.000000	6.000000	1580.78
4.000000	6.000000	1575.82
8.000000	6.000000	1580.62
12	6.000000	1580.79
16	6.000000	1575.86
20	6.000000	1578.52
24	6.000000	1582.61
28	6.000000	1575.87
32	6.000000	1581.2
36	6.000000	1580.86
-26.5	6.500000	1579.12
-22.5	6.500000	1577.34
-18.5	6.500000	1580.6
-14.5	6.500000	1572.26
-10.5	6.500000	1578.48
-6.500000	6.500000	1577.45
-2.500000	6.500000	1580.53
1.500000	6.500000	1575.53
5.500000	6.500000	1577.58
9.500000	6.500000	1579.61
13.5	6.500000	1576.96
17.5	6.500000	1576.31
21.5	6.500000	1581.94
25.5	6.500000	1583.62
29.5	6.500000	1578.4
33.5	6.500000	1581.14
37.5	6.500000	1576.47
-25	7.000000	1581.57
-21	7.000000	1581.5
-17	7.000000	1581.64
-13	7.000000	1576.22
-9.000000	7.000000	1571.5
-5.000000	7.000000	1582.47
-1.000000	7.000000	1578.19
3.000000	7.000000	1580.81
7.000000	7.000000	1580.43
11	7.000000	1579.97
15	7.000000	1579.3
19	7.000000	1575.2
23	7.000000	1583.56
27	7.000000	1581.89
31	7.000000	1576.37
35	7.000000	1581.3
-27.5	7.500000	1586.13
-23.5	7.500000	1588.58
-19.5	7.500000	1579.2
-15.5	7.500000	1580.98
-11.5	7.500000	1576.98
-7.500000	7.500000	1575.6
-3.500000	7.500000	1582
0.500000	7.500000	1579.79
4.500000	7.500000	1576.42
8.500000	7.500000	1580.59
12.5	7.500000	1573.51
16.5	7.500000	1570
20.5	7.500000	1579.36
24.5	7.500000	1578.04
28.5	7.500000	1570
32.5	7.500000	1581.92
36.5	7.500000	1578.45
-26	8.000000	1583.39
-22	8.000000	1571.7
-18	8.000000	1581.11
-14	8.000000	1571.19
-10	8.000000	1575.39
-6.000000	8.000000	1577.94
-2.000000	8.000000	1581.37
2.000000	8.000000	1572.04
6.000000	8.000000	1579.38
10	8.000000	1581.27
14	8.000000	1574.69
18	8.000000	1573.75
22	8.000000	1578.66
26	8.000000	1580.73
30	8.000000	1579.37
34	8.000000	1580.52
38	8.000000	1575.31
-24.5	8.500000	1591.74
-20.5	8.500000	1576.09
-16.5	8.500000	1582.65
-12.5	8.500000	1575.66
-8.500000	8.500000	1576.55
-4.500000	8.500000	1574.06
-0.500000	8.500000	1575.3
3.500000	8.500000	1575.68
7.500000	8.500000	1581.63
11.5	8.500000	1572.69
15.5	8.500000	1578.27
19.5	8.500000	1575.38
23.5	8.500000	1580.11
27.5	8.500000	1579.59
31.5	8.500000	1580.11
35.5	8.500000	1578.65
-27	9.000000	1600
-23	9.000000	1582.19
-19	9.000000	1579.49
-15	9.000000	1572.24
-11	9.000000	1574.37
-7.000000	9.000000	1574.99
-3.000000	9.000000	1573.66
1.000000	9.000000	1581.9
5.000000	9.000000	1575.52
9.000000	9.000000	1580.31
13	9.000000	1574.55
17	9.000000	1573.72
21	9.000000	1575.65
25	9.000000	1577.55
29	9.000000	1576.32
33	9.000000	1579.94
37	9.000000	1572.74
-25.5	9.500000	1600
-21.5	9.500000	1584.16
-17.5	9.500000	1580.94
-13.5	9.500000	1574.34
-9.500000	9.500000	1570
-5.500000	9.500000	1573.41
-1.500000	9.500000	1582.17
2.500000	9.500000	1575.66
6.500000	9.500000	1576.77
10.5	9.500000	1579.04
14.5	9.500000	1577.6
18.5	9.500000	1570.44
22.5	9.500000	1575
26.5	9.500000	1576.85
30.5	9.500000	1579.54
34.5	9.500000	1577.09
-28	10	1570
-24	10	1577.09
-20	10	1581.43
-16	10	1579.34
-12	10	1573.99
-8.000000	10	1576.39
-4.000000	10	1577.73
0.000000	10	1579.08
4.000000	10	1583.55
8.000000	10	1578.25
12	10	1579.93
16	10	1573.9
20	10	1574.31
24	10	1580.48
28	10	1575.32
32	10	1581.79
36	10	1573.93
-26.5	10.5	1588.95
-22.5	10.5	1576.05
-18.5	10.5	1586.65
-14.5	10.5	1574.1
-10.5	10.5	1574.12
-6.500000	10.5	1570
-2.500000	10.5	1570.41
1.500000	10.5	1577.7
5.500000	10.5	1581.6
9.500000	10.5	1580.83
13.5	10.5	1573.22
17.5	10.5	1576.81
21.5	10.5	1572.97
25.5	10.5	1580.63
29.5	10.5	1578.17
33.5	10.5	1576.37
37.5	10.5	1572.34
-25	11	1570
-21	11	1580.56
-17	11	1576.03
-13	11	1574.34
-9.000000	11	1578.96
-5.000000	11	1570
-1.000000	11	1574.71
3.000000	11	1579.26
7.000000	11	1577.36
11	11	1581.7
15	11	1575.08
19	11	1580.45
23	11	1579.03
27	11	1576.42
31	11	1576.96
35	11	1576.05
-27.5	11.5	1581.5
-23.5	11.5	1595.09
-19.5	11.5	1590.72
-15.5	11.5	1578.95
-11.5	11.5	1572.94
-7.500000	11.5	1577.52
-3.500000	11.5	1572.32
0.500000	11.5	1576.94
4.500000	11.5	1600
8.500000	11.5	1573.36
12.5	11.5	1572.81
16.5	11.5	1572.56
20.5	11.5	1578.72
24.5	11.5	1579.74
28.5	11.5	1579.01
32.5	11.5	1576.13
36.5	11.5	1576.65
-26	12	1587.14
-22	12	1577.16
-18	12	1587.79
-14	12	1589.13
-10	12	1572.91
-6.000000	12	1574.03
-2.000000	12	1571.57
2.000000	12	1576.83
6.000000	12	1600
10	12	1581.45
14	12	1571.51
18	12	1579.89
22	12	1579.14
26	12	1574.36
30	12	1570.86
34	12	1579.52
38	12	1574.08
-24.5	12.5	1600
-20.5	12.5	1591.09
-16.5	12.5	1586.69
-12.5	12.5	1578.73
-8.500000	12.5	1577.79
-4.500000	12.5	1575.9
-0.500000	12.5	1574.77
3.500000	12.5	1570
7.500000	12.5	1570
11.5	12.5	1580.54
15.5	12.5	1573.11
19.5	12.5	1580.66
23.5	12.5	1577
27.5	12.5	1574.72
31.5	12.5	1575.85
35.5	12.5	1577.98
-27	13	1580.98
-23	13	1580.46
-19	13	1600
-15	13	1600
-11	13	1581.22
-7.000000	13	1578.01
-3.000000	13	1573.58
1.000000	13	1576.48
5.000000	13	1590.57
9.000000	13	1579.34
13	13	1570
17	13	1572.44
21	13	1578.47
25	13	1577.22
29	13	1575.03
33	13	1580.29
37	13	1572.79
-25.5	13.5	1600
-21.5	13.5	1593.79
-17.5	13.5	1570
-13.5	13.5	1600
-9.500000	13.5	1577.44
-5.500000	13.5	1574.18
-1.500000	13.5	1579.79
2.500000	13.5	1586.97
6.500000	13.5	1570
10.5	13.5	1579.48
14.5	13.5	1573.89
18.5	13.5	1579.52
22.5	13.5	1571.18
26.5	13.5	1575.21
30.5	13.5	1570.04
34.5	13.5	1580.66
-28	14	1582.86
-24	14	1570
-20	14	1574.21
-16	14	1593.41
-12	14	1575.19
-8.000000	14	1578.13
-4.000000	14	1570
0.000000	14	1580.55
4.000000	14	1600
8.000000	14	1594.73
12	14	1580.73
16	14	1571.51
20	14	1579.52
24	14	1578.65
28	14	1574.05
32	14	1574.3
36	14	1578.83
-26.5	14.5	1575.96
-22.5	14.5	1593.12
-18.5	14.5	1600
-14.5	14.5	1600
-10.5	14.5	1582.09
-6.500000	14.5	1574.48
-2.500000	14.5	1576.31
1.500000	14.5	1591
5.500000	14.5	1600
9.500000	14.5	1583.88
13.5	14.5	1583.6
17.5	14.5	1573.95
21.5	14.5	1576.25
25.5	14.5	1576.05
29.5	14.5	1574.96
33.5	14.5	1579.36
37.5	14.5	1572.12
-25	15	1597.64
-21	15	1600
-17	15	1578.33
-13	15	1598.65
-9.000000	15	1580.85
-5.000000	15	1600
-1.000000	15	1571.08
3.000000	15	1583.43
7.000000	15	1600
11	15	1582.38
15	15	1570
19	15	1578.44
23	15	1574.2
27	15	1571.56
31	15	1578.89
35	15	1580.59
-27.5	15.5	1570.5
-23.5	15.5	1570
-19.5	15.5	1600
-15.5	15.5	1600
-11.5	15.5	1586.89
-7.500000	15.5	1581.94
-3.500000	15.5	1589.15
0.500000	15.5	1578.12
4.500000	15.5	1582.79
8.500000	15.5	1579.89
12.5	15.5	1578
16.5	15.5	1573.3
20.5	15.5	1577.06
24.5	15.5	1577.03
28.5	15.5	1571.33
32.5	15.5	1573.38
36.5	15.5	1585.69
-26	16	1588.38
-22	16	1600
-18	16	1570
-14	16	1570
-10	16	1575.46
-6.000000	16	1570
-2.000000	16	1585.74
2.000000	16	1582.93
6.000000	16	1570
10	16	1577.5
14	16	1582.69
18	16	1571.55
22	16	1577.93
26	16	1570.27
30	16	1574.82
34	16	1574.08
38	16	1591.58
-24.5	16.5	1570
-20.5	16.5	1600
-16.5	16.5	1600
-12.5	16.5	1579.09
-8.500000	16.5	1574.81
-4.500000	16.5	1589.42
-0.500000	16.5	1583.35
3.500000	16.5	1577.29
7.500000	16.5	1600
11.5	16.5	1582.76
15.5	16.5	1574.34
19.5	16.5	1579.71
23.5	16.5	1575.04
27.5	16.5	1570.65
31.5	16.5	1587.68
35.5	16.5	1572.71
-27	17	1600
-23	17	1570
-19	17	1600
-15	17	1600
-11	17	1576.09
-7.000000	17	1570
-3.000000	17	1595.52
1.000000	17	1582.84
5.000000	17	1581.98
9.000000	17	1583.64
13	17	1582.57
17	17	1573.73
21	17	1578.55
25	17	1572.71
29	17	1570
33	17	1572.8
37	17	1570
-25.5	17.5	1600
-21.5	17.5	1570
-17.5	17.5	1600
-13.5	17.5	1583.39
-9.500000	17.5	1577.32
-5.500000	17.5	1570
-1.500000	17.5	1586.08
2.500000	17.5	1578.72
6.500000	17.5	1600
10.5	17.5	1582.64
14.5	17.5	1581.73
18.5	17.5	1581.43
22.5	17.5	1577.02
26.5	17.5	1582.48
30.5	17.5	1588.3
34.5	17.5	1571.44
-28	18	1600
-24	18	1570
-20	18	1600
-16	18	1570
-12	18	1573.73
-8.000000	18	1583.61
-4.000000	18	1570.34
0.000000	18	1589.47
4.000000	18	1580.12
8.000000	18	1597.42
12	18	1576.3
16	18	1580.77
20	18	1581.65
24	18	1570.25
28	18	1575.26
32	18	1591.61
36	18	1577.66
-26.5	18.5	1581.9
-22.5	18.5	1600
-18.5	18.5	1600
-14.5	18.5	1584.02
-10.5	18.5	1577.65
-6.500000	18.5	1597.17
-2.500000	18.5	1584.65
1.500000	18.5	1580.28
5.500000	18.5	1599.83
9.500000	18.5	1583.3
13.5	18.5	1575.97
17.5	18.5	1572.75
21.5	18.5	1579.27
25.5	18.5	1580.86
29.5	18.5	1583.91
33.5	18.5	1579.64
37.5	18.5	1600
-25	19	1570
-21	19	1591.18
-17	19	1594.11
-13	19	1580.84
-9.000000	19	1578.08
-5.000000	19	1585.75
-1.000000	19	1580.63
3.000000	19	1580.09
7.000000	19	1600
11	19	1577.04
15	19	1581.47
19	19	1581.85
23	19	1575.62
27	19	1570
31	19	1593.15
35	19	1581.07
-27.5	19.5	1581.83
-23.5	19.5	1596.18
-19.5	19.5	1582.23
-15.5	19.5	1600
-11.5	19.5	1580.01
-7.500000	19.5	1584.32
-3.500000	19.5	1579.9
0.500000	19.5	1579.85
4.500000	19.5	1580.51
8.500000	19.5	1591.92
12.5	19.5	1572.52
16.5	19.5	1583.67
20.5	19.5	1579.63
24.5	19.5	1582.5
28.5	19.5	1600
32.5	19.5	1574.06
36.5	19.5	1585.83
-26	20	1584.2
-22	20	1581.67
-18	20	1600
-14	20	1600
-10	20	1580.1
-6.000000	20	1584.31
-2.000000	20	1571.92
2.000000	20	1580.57
6.000000	20	1578.97
10	20	1583.52
14	20	1575.47
18	20	1580.68
22	20	1576.08
26	20	1586.28
30	20	1570.06
34	20	1572.81
38	20	1572.58