File: data/derived_data/raman/20170920_Gr-NH2_for_Radisurf/20170920 Gr-NH for Radisurf map 1/SiO2 FWHM.txt
#XList		#YList		#IList
-28	-22	63.4213
-24	-22	51.7389
-20	-22	61.9782
-16	-22	396.639
-12	-22	48.916
-8.000000	-22	83.3537
-4.000000	-22	48.2086
0.000000	-22	0.639823
4.000000	-22	60.2016
8.000000	-22	9.750531
12	-22	1.110049
16	-22	37.3704
20	-22	0.835356
24	-22	62.2757
28	-22	53.7248
32	-22	54.5963
36	-22	59.2864
-26.5	-21.5	58.1882
-22.5	-21.5	44.6033
-18.5	-21.5	52.1844
-14.5	-21.5	0.639823
-10.5	-21.5	45.2835
-6.500000	-21.5	279.334
-2.500000	-21.5	41.8076
1.500000	-21.5	58.2646
5.500000	-21.5	43.3818
9.500000	-21.5	0.712314
13.5	-21.5	0.854117
17.5	-21.5	48.9505
21.5	-21.5	0.639823
25.5	-21.5	62.2725
29.5	-21.5	34.4069
33.5	-21.5	57.2052
37.5	-21.5	64.3783
-25	-21	43.6483
-21	-21	0.639823
-17	-21	56.8778
-13	-21	57.4857
-9.000000	-21	37.5967
-5.000000	-21	47.8615
-1.000000	-21	0.639823
3.000000	-21	57.0221
7.000000	-21	58.5172
11	-21	0.639823
15	-21	155.797
19	-21	47.5121
23	-21	38.0358
27	-21	49.5476
31	-21	23.2213
35	-21	57.831
-27.5	-20.5	61.7042
-23.5	-20.5	47.6165
-19.5	-20.5	32.4219
-15.5	-20.5	0.682421
-11.5	-20.5	58.844
-7.500000	-20.5	46.0679
-3.500000	-20.5	0.639823
0.500000	-20.5	57.0014
4.500000	-20.5	49.47
8.500000	-20.5	18.7125
12.5	-20.5	45.3571
16.5	-20.5	40.7131
20.5	-20.5	0.639823
24.5	-20.5	46.2687
28.5	-20.5	48.271
32.5	-20.5	58.5589
36.5	-20.5	56.6667
-26	-20	62.708
-22	-20	0.639823
-18	-20	39.7715
-14	-20	50.8348
-10	-20	54.6869
-6.000000	-20	55.7632
-2.000000	-20	56.1122
2.000000	-20	60.4902
6.000000	-20	0.815874
10	-20	0.876469
14	-20	0.639823
18	-20	54.5633
22	-20	29.9413
26	-20	63.5243
30	-20	0.639823
34	-20	61.0578
38	-20	60.648
-24.5	-19.5	49.7255
-20.5	-19.5	0.639823
-16.5	-19.5	143.731
-12.5	-19.5	58.0214
-8.500000	-19.5	56.0042
-4.500000	-19.5	47.6561
-0.500000	-19.5	57.8534
3.500000	-19.5	46.0491
7.500000	-19.5	53.618
11.5	-19.5	24.0819
15.5	-19.5	0.956115
19.5	-19.5	31.9258
23.5	-19.5	30.8422
27.5	-19.5	55.5091
31.5	-19.5	54.9049
35.5	-19.5	61.3735
-27	-19	56.4812
-23	-19	45.4473
-19	-19	50.6583
-15	-19	60.3485
-11	-19	61.8668
-7.000000	-19	57.7864
-3.000000	-19	62.1051
1.000000	-19	56.7413
5.000000	-19	37.2105
9.000000	-19	504.393
13	-19	353.014
17	-19	56.251
21	-19	0.847678
25	-19	57.6318
29	-19	28.5345
33	-19	55.7416
37	-19	64.851
-25.5	-18.5	56.9807
-21.5	-18.5	49.4268
-17.5	-18.5	50.4639
-13.5	-18.5	60.0574
-9.500000	-18.5	58.1789
-5.500000	-18.5	49.7036
-1.500000	-18.5	43.9586
2.500000	-18.5	40.8215
6.500000	-18.5	24.8539
10.5	-18.5	43.5442
14.5	-18.5	0.642006
18.5	-18.5	45.8289
22.5	-18.5	25.0384
26.5	-18.5	46.4302
30.5	-18.5	41.5541
34.5	-18.5	58.6091
-28	-18	60.5049
-24	-18	56.9056
-20	-18	57.5722
-16	-18	53.7292
-12	-18	60.4789
-8.000000	-18	58.9142
-4.000000	-18	45.2185
0.000000	-18	56.1025
4.000000	-18	30.857
8.000000	-18	224.317
12	-18	0.798159
16	-18	45.2844
20	-18	40.2872
24	-18	55.6778
28	-18	55.2667
32	-18	61.3541
36	-18	60.5082
-26.5	-17.5	61.811
-22.5	-17.5	60.4067
-18.5	-17.5	23.3725
-14.5	-17.5	50.4295
-10.5	-17.5	60.1546
-6.500000	-17.5	61.0773
-2.500000	-17.5	80.5087
1.500000	-17.5	48.2564
5.500000	-17.5	1.210826
9.500000	-17.5	29.0983
13.5	-17.5	0.639823
17.5	-17.5	46.7768
21.5	-17.5	37.7182
25.5	-17.5	275.691
29.5	-17.5	52.864
33.5	-17.5	59.4528
37.5	-17.5	59.559
-25	-17	61.3671
-21	-17	60.5531
-17	-17	44.7699
-13	-17	52.1088
-9.000000	-17	59.8113
-5.000000	-17	51.0844
-1.000000	-17	0.639823
3.000000	-17	40.3622
7.000000	-17	38.1374
11	-17	23.9212
15	-17	0.640153
19	-17	36.2874
23	-17	57.0804
27	-17	44.8734
31	-17	46.5209
35	-17	60.6181
-27.5	-16.5	43.5048
-23.5	-16.5	66.172
-19.5	-16.5	51.1976
-15.5	-16.5	41.5309
-11.5	-16.5	51.8133
-7.500000	-16.5	55.2318
-3.500000	-16.5	48.2571
0.500000	-16.5	116.262
4.500000	-16.5	34.4154
8.500000	-16.5	62.0602
12.5	-16.5	203.623
16.5	-16.5	0.639823
20.5	-16.5	51.4876
24.5	-16.5	46.1712
28.5	-16.5	51.006
32.5	-16.5	63.6284
36.5	-16.5	56.4126
-26	-16	57.8743
-22	-16	61.3169
-18	-16	47.8445
-14	-16	56.3997
-10	-16	54.7066
-6.000000	-16	42.1532
-2.000000	-16	0.741016
2.000000	-16	45.2891
6.000000	-16	41.2473
10	-16	40.0022
14	-16	41.5708
18	-16	38.5384
22	-16	51.192
26	-16	41.4292
30	-16	16.8155
34	-16	63.654
38	-16	59.3045
-24.5	-15.5	61.8392
-20.5	-15.5	56.5516
-16.5	-15.5	34.9319
-12.5	-15.5	53.2376
-8.500000	-15.5	51.1244
-4.500000	-15.5	13.2414
-0.500000	-15.5	29.2985
3.500000	-15.5	44.5316
7.500000	-15.5	49.9851
11.5	-15.5	20.7933
15.5	-15.5	42.2599
19.5	-15.5	60.9954
23.5	-15.5	55.4362
27.5	-15.5	54.1603
31.5	-15.5	59.5699
35.5	-15.5	48.2291
-27	-15	54.3557
-23	-15	59.8253
-19	-15	32.3815
-15	-15	38.0477
-11	-15	20.9868
-7.000000	-15	29.3666
-3.000000	-15	0.811030
1.000000	-15	45.2678
5.000000	-15	29.3897
9.000000	-15	40.1511
13	-15	48.9171
17	-15	602.203
21	-15	51.2738
25	-15	54.422
29	-15	1.215295
33	-15	57.9058
37	-15	34.0413
-25.5	-14.5	60.4186
-21.5	-14.5	60.4232
-17.5	-14.5	5.367086
-13.5	-14.5	50.6255
-9.500000	-14.5	29.632
-5.500000	-14.5	35.0919
-1.500000	-14.5	43.8748
2.500000	-14.5	48.2617
6.500000	-14.5	46.0042
10.5	-14.5	46.5763
14.5	-14.5	102.86
18.5	-14.5	49.7654
22.5	-14.5	58.8333
26.5	-14.5	60.42
30.5	-14.5	54.034
34.5	-14.5	22.8721
-28	-14	62.7619
-24	-14	57.4101
-20	-14	62.6769
-16	-14	55.5312
-12	-14	44.4964
-8.000000	-14	48.8759
-4.000000	-14	37.4624
0.000000	-14	32.9948
4.000000	-14	64.8925
8.000000	-14	49.7995
12	-14	29.3785
16	-14	31.333
20	-14	59.0793
24	-14	53.7142
28	-14	46.9661
32	-14	54.5728
36	-14	2.120958
-26.5	-13.5	57.0979
-22.5	-13.5	60.5503
-18.5	-13.5	53.2185
-14.5	-13.5	23.9849
-10.5	-13.5	57.2315
-6.500000	-13.5	26.6016
-2.500000	-13.5	31.5834
1.500000	-13.5	0.748104
5.500000	-13.5	42.0479
9.500000	-13.5	53.2864
13.5	-13.5	2.648575
17.5	-13.5	45.5927
21.5	-13.5	59.3626
25.5	-13.5	55.6362
29.5	-13.5	170.167
33.5	-13.5	0.639823
37.5	-13.5	48.2759
-25	-13	61.1704
-21	-13	52.8326
-17	-13	82.3141
-13	-13	0.639823
-9.000000	-13	51.73
-5.000000	-13	33.7784
-1.000000	-13	50.9334
3.000000	-13	10.7102
7.000000	-13	13.0077
11	-13	52.9874
15	-13	56.8736
19	-13	53.2677
23	-13	52.1782
27	-13	57.5792
31	-13	59.7986
35	-13	0.639823
-27.5	-12.5	56.6395
-23.5	-12.5	56.7964
-19.5	-12.5	58.9388
-15.5	-12.5	34.45
-11.5	-12.5	54.0739
-7.500000	-12.5	25.069
-3.500000	-12.5	68.1792
0.500000	-12.5	83.5895
4.500000	-12.5	50.12
8.500000	-12.5	50.5369
12.5	-12.5	58.6081
16.5	-12.5	20.5937
20.5	-12.5	49.5852
24.5	-12.5	40.4615
28.5	-12.5	45.3796
32.5	-12.5	61.2776
36.5	-12.5	0.639823
-26	-12	44.4537
-22	-12	57.5256
-18	-12	49.3423
-14	-12	3.493759
-10	-12	0.639823
-6.000000	-12	0.639823
-2.000000	-12	269.767
2.000000	-12	5.987249
6.000000	-12	54.8755
10	-12	57.2068
14	-12	60.3151
18	-12	26.4931
22	-12	62.8806
26	-12	80.7553
30	-12	39.7253
34	-12	62.8386
38	-12	61.7957
-24.5	-11.5	60.7555
-20.5	-11.5	58.8019
-16.5	-11.5	46.647
-12.5	-11.5	58.2423
-8.500000	-11.5	0.639823
-4.500000	-11.5	38.4389
-0.500000	-11.5	50.4029
3.500000	-11.5	44.7134
7.500000	-11.5	0.767504
11.5	-11.5	59.672
15.5	-11.5	53.1873
19.5	-11.5	53.488
23.5	-11.5	0.646466
27.5	-11.5	55.5063
31.5	-11.5	60.264
35.5	-11.5	69.8493
-27	-11	59.9932
-23	-11	60.6769
-19	-11	49.5775
-15	-11	39.8303
-11	-11	36.8907
-7.000000	-11	0.749653
-3.000000	-11	28.2072
1.000000	-11	0.639823
5.000000	-11	53.6668
9.000000	-11	31.0089
13	-11	60.9268
17	-11	36.0093
21	-11	48.5788
25	-11	0.639823
29	-11	56.6049
33	-11	61.6719
37	-11	64.2387
-25.5	-10.5	57.494
-21.5	-10.5	59.3253
-17.5	-10.5	18.4445
-13.5	-10.5	44.6472
-9.500000	-10.5	17.1002
-5.500000	-10.5	47.3454
-1.500000	-10.5	51.9547
2.500000	-10.5	34.3219
6.500000	-10.5	0.639823
10.5	-10.5	52.6846
14.5	-10.5	67.4245
18.5	-10.5	51.4123
22.5	-10.5	55.2715
26.5	-10.5	34.8764
30.5	-10.5	58.4895
34.5	-10.5	61.9866
-28	-10	55.9175
-24	-10	59.1788
-20	-10	50.569
-16	-10	27.6362
-12	-10	51.5256
-8.000000	-10	34.0522
-4.000000	-10	44.3933
0.000000	-10	45.9662
4.000000	-10	42.5223
8.000000	-10	44.9458
12	-10	59.7287
16	-10	61.4459
20	-10	37.1235
24	-10	36.0857
28	-10	59.3663
32	-10	61.1753
36	-10	57.0477
-26.5	-9.500000	61.4751
-22.5	-9.500000	51.7205
-18.5	-9.500000	10.822
-14.5	-9.500000	0.639823
-10.5	-9.500000	56.8096
-6.500000	-9.500000	47.9894
-2.500000	-9.500000	41.8807
1.500000	-9.500000	58.0469
5.500000	-9.500000	1.428664
9.500000	-9.500000	55.0162
13.5	-9.500000	61.043
17.5	-9.500000	62.2483
21.5	-9.500000	56.7264
25.5	-9.500000	16.1069
29.5	-9.500000	59.0815
33.5	-9.500000	51.0482
37.5	-9.500000	47.7492
-25	-9.000000	59.8374
-21	-9.000000	63.0551
-17	-9.000000	0.639823
-13	-9.000000	54.865
-9.000000	-9.000000	0.681413
-5.000000	-9.000000	44.0596
-1.000000	-9.000000	48.4319
3.000000	-9.000000	0.639823
7.000000	-9.000000	0.931284
11	-9.000000	60.5516
15	-9.000000	56.8891
19	-9.000000	42.3143
23	-9.000000	41.6987
27	-9.000000	52.6818
31	-9.000000	58.03
35	-9.000000	56.2446
-27.5	-8.500000	55.1703
-23.5	-8.500000	8.050430
-19.5	-8.500000	46.8697
-15.5	-8.500000	0.640415
-11.5	-8.500000	59.9512
-7.500000	-8.500000	214.7
-3.500000	-8.500000	48.1663
0.500000	-8.500000	0.639823
4.500000	-8.500000	0.639823
8.500000	-8.500000	0.854008
12.5	-8.500000	52.3109
16.5	-8.500000	53.6534
20.5	-8.500000	0.766265
24.5	-8.500000	48.4305
28.5	-8.500000	55.5221
32.5	-8.500000	49.496
36.5	-8.500000	61.6646
-26	-8.000000	62.2533
-22	-8.000000	0.647642
-18	-8.000000	2.809687
-14	-8.000000	0.639823
-10	-8.000000	36.5252
-6.000000	-8.000000	40.8722
-2.000000	-8.000000	50.9016
2.000000	-8.000000	14.3871
6.000000	-8.000000	0.639823
10	-8.000000	40.4069
14	-8.000000	43.3786
18	-8.000000	52.9997
22	-8.000000	41.6186
26	-8.000000	0.639823
30	-8.000000	46.5808
34	-8.000000	53.9855
38	-8.000000	64.1281
-24.5	-7.500000	47.8758
-20.5	-7.500000	46.7262
-16.5	-7.500000	73.9395
-12.5	-7.500000	42.2538
-8.500000	-7.500000	45.4217
-4.500000	-7.500000	43.603
-0.500000	-7.500000	43.5001
3.500000	-7.500000	0.854639
7.500000	-7.500000	22.7931
11.5	-7.500000	50.2935
15.5	-7.500000	78.1745
19.5	-7.500000	50.275
23.5	-7.500000	56.5079
27.5	-7.500000	42.0571
31.5	-7.500000	56.3421
35.5	-7.500000	47.7178
-27	-7.000000	62.9758
-23	-7.000000	0.639823
-19	-7.000000	48.4534
-15	-7.000000	0.639823
-11	-7.000000	61.4673
-7.000000	-7.000000	32.8264
-3.000000	-7.000000	46.0823
1.000000	-7.000000	0.639823
5.000000	-7.000000	0.891674
9.000000	-7.000000	65.7052
13	-7.000000	49.3595
17	-7.000000	46.6454
21	-7.000000	1.214768
25	-7.000000	45.8481
29	-7.000000	41.7524
33	-7.000000	72.2387
37	-7.000000	48.0951
-25.5	-6.500000	63.4416
-21.5	-6.500000	35.7706
-17.5	-6.500000	36.3246
-13.5	-6.500000	0.971101
-9.500000	-6.500000	46.7635
-5.500000	-6.500000	44.7087
-1.500000	-6.500000	47.5989
2.500000	-6.500000	49.1711
6.500000	-6.500000	0.764900
10.5	-6.500000	49.6242
14.5	-6.500000	0.681424
18.5	-6.500000	45.7385
22.5	-6.500000	833.667
26.5	-6.500000	29.5093
30.5	-6.500000	32.637
34.5	-6.500000	48.335
-28	-6.000000	56.5592
-24	-6.000000	46.3926
-20	-6.000000	0.639823
-16	-6.000000	0.639823
-12	-6.000000	27.583
-8.000000	-6.000000	0.825162
-4.000000	-6.000000	51.4858
0.000000	-6.000000	55.1711
4.000000	-6.000000	42.0079
8.000000	-6.000000	45.1372
12	-6.000000	40.1405
16	-6.000000	0.639823
20	-6.000000	1.127354
24	-6.000000	44.5428
28	-6.000000	0.644103
32	-6.000000	56.3887
36	-6.000000	54.8179
-26.5	-5.500000	58.9422
-22.5	-5.500000	0.639823
-18.5	-5.500000	0.646698
-14.5	-5.500000	3.561877
-10.5	-5.500000	58.1235
-6.500000	-5.500000	8.388734
-2.500000	-5.500000	57.9043
1.500000	-5.500000	57.374
5.500000	-5.500000	52.9608
9.500000	-5.500000	41.5535
13.5	-5.500000	1.266401
17.5	-5.500000	37.9305
21.5	-5.500000	0.848896
25.5	-5.500000	0.896526
29.5	-5.500000	57.4155
33.5	-5.500000	49.7108
37.5	-5.500000	45.4114
-25	-5.000000	62.0113
-21	-5.000000	0.639823
-17	-5.000000	38.3688
-13	-5.000000	49.2029
-9.000000	-5.000000	63.2588
-5.000000	-5.000000	58.5893
-1.000000	-5.000000	62.0486
3.000000	-5.000000	50.6443
7.000000	-5.000000	54.1656
11	-5.000000	49.8988
15	-5.000000	0.716982
19	-5.000000	40.5548
23	-5.000000	46.8384
27	-5.000000	50.3062
31	-5.000000	64.3591
35	-5.000000	41.4227
-27.5	-4.500000	53.6821
-23.5	-4.500000	46.8048
-19.5	-4.500000	0.639823
-15.5	-4.500000	41.0631
-11.5	-4.500000	61.1181
-7.500000	-4.500000	51.7274
-3.500000	-4.500000	55.4977
0.500000	-4.500000	43.7086
4.500000	-4.500000	49.3137
8.500000	-4.500000	46.698
12.5	-4.500000	22.7809
16.5	-4.500000	15.5417
20.5	-4.500000	91.5881
24.5	-4.500000	46.579
28.5	-4.500000	39.2623
32.5	-4.500000	54.3509
36.5	-4.500000	52.8147
-26	-4.000000	58.4158
-22	-4.000000	0.641696
-18	-4.000000	39.9697
-14	-4.000000	79.841
-10	-4.000000	61.4877
-6.000000	-4.000000	60.3279
-2.000000	-4.000000	50.7842
2.000000	-4.000000	52.7296
6.000000	-4.000000	57.7557
10	-4.000000	51.0459
14	-4.000000	24.5361
18	-4.000000	0.639823
22	-4.000000	12.0753
26	-4.000000	210.696
30	-4.000000	55.8525
34	-4.000000	55.782
38	-4.000000	51.225
-24.5	-3.500000	61.2246
-20.5	-3.500000	31.1718
-16.5	-3.500000	0.855282
-12.5	-3.500000	52.4117
-8.500000	-3.500000	61.9611
-4.500000	-3.500000	59.5227
-0.500000	-3.500000	54.2296
3.500000	-3.500000	57.7889
7.500000	-3.500000	54.6022
11.5	-3.500000	1.019475
15.5	-3.500000	4.270092
19.5	-3.500000	45.2662
23.5	-3.500000	0.639823
27.5	-3.500000	0.776504
31.5	-3.500000	59.0594
35.5	-3.500000	51.8208
-27	-3.000000	55.8857
-23	-3.000000	53.2255
-19	-3.000000	9.669271
-15	-3.000000	43.8556
-11	-3.000000	53.5708
-7.000000	-3.000000	59.921
-3.000000	-3.000000	59.7027
1.000000	-3.000000	44.7322
5.000000	-3.000000	54.8657
9.000000	-3.000000	58.249
13	-3.000000	185.334
17	-3.000000	45.5153
21	-3.000000	491.341
25	-3.000000	0.726484
29	-3.000000	48.2651
33	-3.000000	60.6454
37	-3.000000	52.8363
-25.5	-2.500000	60.7958
-21.5	-2.500000	49.7269
-17.5	-2.500000	47.7752
-13.5	-2.500000	53.5002
-9.500000	-2.500000	59.346
-5.500000	-2.500000	62.9427
-1.500000	-2.500000	49.4573
2.500000	-2.500000	57.5679
6.500000	-2.500000	58.4379
10.5	-2.500000	42.9026
14.5	-2.500000	40.5435
18.5	-2.500000	43.1527
22.5	-2.500000	16.0136
26.5	-2.500000	0.639823
30.5	-2.500000	57.4586
34.5	-2.500000	41.634
-28	-2.000000	46.7363
-24	-2.000000	64.2196
-20	-2.000000	55.7539
-16	-2.000000	0.639823
-12	-2.000000	62.9414
-8.000000	-2.000000	58.2901
-4.000000	-2.000000	63.9997
0.000000	-2.000000	54.6335
4.000000	-2.000000	63.6477
8.000000	-2.000000	60.0488
12	-2.000000	0.856423
16	-2.000000	0.639823
20	-2.000000	43.7454
24	-2.000000	43.477
28	-2.000000	16.1507
32	-2.000000	61.2781
36	-2.000000	62.937
-26.5	-1.500000	57.1383
-22.5	-1.500000	61.4883
-18.5	-1.500000	52.3129
-14.5	-1.500000	41.4685
-10.5	-1.500000	53.2381
-6.500000	-1.500000	58.0898
-2.500000	-1.500000	60.919
1.500000	-1.500000	65.6789
5.500000	-1.500000	56.5306
9.500000	-1.500000	47.7272
13.5	-1.500000	43.3665
17.5	-1.500000	0.639823
21.5	-1.500000	1.034835
25.5	-1.500000	0.639823
29.5	-1.500000	45.1946
33.5	-1.500000	59.9092
37.5	-1.500000	82.1328
-25	-1.000000	56.8068
-21	-1.000000	59.9602
-17	-1.000000	0.809677
-13	-1.000000	59.894
-9.000000	-1.000000	64.8024
-5.000000	-1.000000	62.3814
-1.000000	-1.000000	1.206673
3.000000	-1.000000	60.862
7.000000	-1.000000	39.3406
11	-1.000000	0.640244
15	-1.000000	45.4476
19	-1.000000	0.643339
23	-1.000000	1.266227
27	-1.000000	43.351
31	-1.000000	54.6246
35	-1.000000	42.1666
-27.5	-0.500000	57.4533
-23.5	-0.500000	62.1619
-19.5	-0.500000	56.3715
-15.5	-0.500000	30.9963
-11.5	-0.500000	24.1567
-7.500000	-0.500000	55.8661
-3.500000	-0.500000	59.837
0.500000	-0.500000	56.2833
4.500000	-0.500000	55.8293
8.500000	-0.500000	51.1238
12.5	-0.500000	0.639823
16.5	-0.500000	14.1623
20.5	-0.500000	0.639823
24.5	-0.500000	0.639823
28.5	-0.500000	11.0874
32.5	-0.500000	59.5776
36.5	-0.500000	53.6077
-26	0.000000	49.1766
-22	0.000000	61.2182
-18	0.000000	0.639823
-14	0.000000	53.6398
-10	0.000000	1.525175
-6.000000	0.000000	60.9506
-2.000000	0.000000	49.5754
2.000000	0.000000	60.4557
6.000000	0.000000	35.4535
10	0.000000	21.5748
14	0.000000	330.451
18	0.000000	43.6382
22	0.000000	0.807247
26	0.000000	42.0091
30	0.000000	47.8717
34	0.000000	61.5018
38	0.000000	54.4983
-24.5	0.500000	52.0685
-20.5	0.500000	60.3955
-16.5	0.500000	32.5628
-12.5	0.500000	43.5219
-8.500000	0.500000	34.846
-4.500000	0.500000	61.0919
-0.500000	0.500000	0.639823
3.500000	0.500000	54.4165
7.500000	0.500000	46.3785
11.5	0.500000	0.639823
15.5	0.500000	0.639823
19.5	0.500000	44.8516
23.5	0.500000	0.639823
27.5	0.500000	0.672590
31.5	0.500000	54.2069
35.5	0.500000	60.1218
-27	1.000000	43.4654
-23	1.000000	47.6279
-19	1.000000	43.8136
-15	1.000000	48.1318
-11	1.000000	26.6501
-7.000000	1.000000	56.8227
-3.000000	1.000000	54.1147
1.000000	1.000000	0.639823
5.000000	1.000000	27.8932
9.000000	1.000000	49.9605
13	1.000000	0.897741
17	1.000000	0.639823
21	1.000000	45.9867
25	1.000000	44.7968
29	1.000000	18.1391
33	1.000000	62.6046
37	1.000000	59.017
-25.5	1.500000	0.639823
-21.5	1.500000	43.1416
-17.5	1.500000	0.639823
-13.5	1.500000	0.639823
-9.500000	1.500000	0.698795
-5.500000	1.500000	59.5886
-1.500000	1.500000	47.812
2.500000	1.500000	52.0277
6.500000	1.500000	39.1398
10.5	1.500000	0.639823
14.5	1.500000	44.1271
18.5	1.500000	46.4851
22.5	1.500000	0.639823
26.5	1.500000	0.639823
30.5	1.500000	47.9786
34.5	1.500000	58.7816
-28	2.000000	0.639823
-24	2.000000	0.639823
-20	2.000000	52.9696
-16	2.000000	0.804101
-12	2.000000	36.8693
-8.000000	2.000000	47.0329
-4.000000	2.000000	56.299
0.000000	2.000000	26.3944
4.000000	2.000000	34.5906
8.000000	2.000000	42.9866
12	2.000000	0.665481
16	2.000000	235.568
20	2.000000	0.639823
24	2.000000	43.0735
28	2.000000	0.893700
32	2.000000	60.4531
36	2.000000	60.0821
-26.5	2.500000	0.639823
-22.5	2.500000	0.871187
-18.5	2.500000	31.82
-14.5	2.500000	0.639823
-10.5	2.500000	0.639823
-6.500000	2.500000	61.0808
-2.500000	2.500000	38.2629
1.500000	2.500000	0.639823
5.500000	2.500000	0.639823
9.500000	2.500000	25.624
13.5	2.500000	44.3314
17.5	2.500000	44.491
21.5	2.500000	1.505405
25.5	2.500000	42.0959
29.5	2.500000	0.657048
33.5	2.500000	57.1827
37.5	2.500000	50.5954
-25	3.000000	0.639823
-21	3.000000	43.8593
-17	3.000000	0.653594
-13	3.000000	0.639823
-9.000000	3.000000	43.9625
-5.000000	3.000000	58.7125
-1.000000	3.000000	29.9189
3.000000	3.000000	38.5023
7.000000	3.000000	36.1847
11	3.000000	0.669847
15	3.000000	36.8561
19	3.000000	41.6902
23	3.000000	49.0431
27	3.000000	42.5315
31	3.000000	50.1878
35	3.000000	57.4495
-27.5	3.500000	41.9364
-23.5	3.500000	0.639823
-19.5	3.500000	39.4085
-15.5	3.500000	0.726793
-11.5	3.500000	0.639823
-7.500000	3.500000	48.4089
-3.500000	3.500000	26.2857
0.500000	3.500000	0.925093
4.500000	3.500000	0.639823
8.500000	3.500000	36.5737
12.5	3.500000	44.8225
16.5	3.500000	40.5688
20.5	3.500000	50.897
24.5	3.500000	0.641104
28.5	3.500000	0.639823
32.5	3.500000	59.4081
36.5	3.500000	42.7042
-26	4.000000	0.639823
-22	4.000000	54.1997
-18	4.000000	38.7526
-14	4.000000	0.863782
-10	4.000000	4.450544
-6.000000	4.000000	22.0767
-2.000000	4.000000	0.639823
2.000000	4.000000	46.0504
6.000000	4.000000	36.1554
10	4.000000	37.2957
14	4.000000	32.3559
18	4.000000	0.673655
22	4.000000	0.639823
26	4.000000	0.639823
30	4.000000	52.0601
34	4.000000	61.0036
38	4.000000	47.1583
-24.5	4.500000	54.291
-20.5	4.500000	42.8871
-16.5	4.500000	41.9619
-12.5	4.500000	40.3449
-8.500000	4.500000	0.639823
-4.500000	4.500000	10.2506
-0.500000	4.500000	44.436
3.500000	4.500000	38.2039
7.500000	4.500000	0.640099
11.5	4.500000	42.8754
15.5	4.500000	32.4837
19.5	4.500000	0.639823
23.5	4.500000	0.645117
27.5	4.500000	0.664522
31.5	4.500000	56.7728
35.5	4.500000	44.6149
-27	5.000000	0.639823
-23	5.000000	49.1912
-19	5.000000	41.2881
-15	5.000000	33.5428
-11	5.000000	0.639823
-7.000000	5.000000	0.639823
-3.000000	5.000000	27.1193
1.000000	5.000000	0.639823
5.000000	5.000000	47.1955
9.000000	5.000000	0.639823
13	5.000000	3.845673
17	5.000000	29.5707
21	5.000000	0.639823
25	5.000000	0.639823
29	5.000000	0.971591
33	5.000000	60.0087
37	5.000000	42.2786
-25.5	5.500000	52.5472
-21.5	5.500000	53.0463
-17.5	5.500000	38.0605
-13.5	5.500000	37.9774
-9.500000	5.500000	43.1506
-5.500000	5.500000	49.2817
-1.500000	5.500000	44.4313
2.500000	5.500000	45.7605
6.500000	5.500000	44.427
10.5	5.500000	0.639823
14.5	5.500000	22.9524
18.5	5.500000	0.639823
22.5	5.500000	47.1281
26.5	5.500000	0.832341
30.5	5.500000	51.1539
34.5	5.500000	4.577488
-28	6.000000	0.639823
-24	6.000000	57.2062
-20	6.000000	49.5686
-16	6.000000	0.639823
-12	6.000000	0.639823
-8.000000	6.000000	29.9702
-4.000000	6.000000	45.4775
0.000000	6.000000	45.4044
4.000000	6.000000	42.8573
8.000000	6.000000	43.7325
12	6.000000	29.8449
16	6.000000	20.7768
20	6.000000	0.856149
24	6.000000	0.858636
28	6.000000	2442.55
32	6.000000	56.3962
36	6.000000	42.2198
-26.5	6.500000	56.4984
-22.5	6.500000	54.7737
-18.5	6.500000	0.639823
-14.5	6.500000	31.9709
-10.5	6.500000	38.5037
-6.500000	6.500000	35.826
-2.500000	6.500000	0.639823
1.500000	6.500000	37.8004
5.500000	6.500000	38.8168
9.500000	6.500000	44.2787
13.5	6.500000	36.2959
17.5	6.500000	0.639823
21.5	6.500000	0.639823
25.5	6.500000	0.639823
29.5	6.500000	49.4055
33.5	6.500000	0.639823
37.5	6.500000	0.639823
-25	7.000000	61.9357
-21	7.000000	46.9618
-17	7.000000	0.817597
-13	7.000000	0.639823
-9.000000	7.000000	32.2575
-5.000000	7.000000	37.7766
-1.000000	7.000000	47.1118
3.000000	7.000000	46.7954
7.000000	7.000000	40.3563
11	7.000000	0.639823
15	7.000000	2.347985
19	7.000000	28.9392
23	7.000000	44.5213
27	7.000000	0.639823
31	7.000000	0.639823
35	7.000000	45.8434
-27.5	7.500000	54.9376
-23.5	7.500000	59.2331
-19.5	7.500000	39.8932
-15.5	7.500000	0.639823
-11.5	7.500000	42.6601
-7.500000	7.500000	39.2789
-3.500000	7.500000	0.639823
0.500000	7.500000	0.639823
4.500000	7.500000	42.3999
8.500000	7.500000	44.1347
12.5	7.500000	89.6407
16.5	7.500000	47.837
20.5	7.500000	43.5563
24.5	7.500000	0.767766
28.5	7.500000	211.129
32.5	7.500000	0.977832
36.5	7.500000	41.3972
-26	8.000000	62.0221
-22	8.000000	40.6267
-18	8.000000	0.639823
-14	8.000000	29.8265
-10	8.000000	0.639823
-6.000000	8.000000	0.639823
-2.000000	8.000000	39.0844
2.000000	8.000000	0.639823
6.000000	8.000000	0.843128
10	8.000000	0.639823
14	8.000000	27.8823
18	8.000000	50.8495
22	8.000000	69.412
26	8.000000	45.233
30	8.000000	0.852168
34	8.000000	47.7315
38	8.000000	0.652395
-24.5	8.500000	59.105
-20.5	8.500000	37.3604
-16.5	8.500000	23.8972
-12.5	8.500000	0.761818
-8.500000	8.500000	32.2775
-4.500000	8.500000	0.639823
-0.500000	8.500000	0.732905
3.500000	8.500000	71.7022
7.500000	8.500000	41.628
11.5	8.500000	63.4113
15.5	8.500000	46.1639
19.5	8.500000	23.843
23.5	8.500000	43.423
27.5	8.500000	0.655599
31.5	8.500000	52.3087
35.5	8.500000	0.639823
-27	9.000000	60.0916
-23	9.000000	53.2416
-19	9.000000	51.3743
-15	9.000000	0.639823
-11	9.000000	38.5811
-7.000000	9.000000	39.2839
-3.000000	9.000000	28.7125
1.000000	9.000000	41.7118
5.000000	9.000000	66.5399
9.000000	9.000000	0.639823
13	9.000000	35.453
17	9.000000	46.8844
21	9.000000	44.6977
25	9.000000	0.639823
29	9.000000	216.55
33	9.000000	0.648306
37	9.000000	18.01
-25.5	9.500000	55.9678
-21.5	9.500000	51.586
-17.5	9.500000	57.9499
-13.5	9.500000	0.709940
-9.500000	9.500000	0.639823
-5.500000	9.500000	29.5008
-1.500000	9.500000	55.5607
2.500000	9.500000	60.5764
6.500000	9.500000	52.8604
10.5	9.500000	0.639823
14.5	9.500000	10.0975
18.5	9.500000	0.639823
22.5	9.500000	0.639823
26.5	9.500000	0.639823
30.5	9.500000	12.6691
34.5	9.500000	4.871044
-28	10	63.1113
-24	10	56.4888
-20	10	46.7749
-16	10	57.2117
-12	10	1.179673
-8.000000	10	34.4459
-4.000000	10	34.0237
0.000000	10	594.445
4.000000	10	56.757
8.000000	10	40.9
12	10	0.639823
16	10	376.928
20	10	21.4259
24	10	48.8331
28	10	0.639823
32	10	1.829511
36	10	0.644454
-26.5	10.5	59.5379
-22.5	10.5	31.9967
-18.5	10.5	57.0853
-14.5	10.5	40.4608
-10.5	10.5	0.639823
-6.500000	10.5	0.639823
-2.500000	10.5	2.307218
1.500000	10.5	30.9478
5.500000	10.5	60.4552
9.500000	10.5	0.639823
13.5	10.5	20.9734
17.5	10.5	25.7688
21.5	10.5	40.7003
25.5	10.5	40.6983
29.5	10.5	0.639823
33.5	10.5	42.9273
37.5	10.5	146.59
-25	11	57.4489
-21	11	55.3038
-17	11	52.2316
-13	11	37.3132
-9.000000	11	35.5812
-5.000000	11	0.639823
-1.000000	11	46.0981
3.000000	11	56.9522
7.000000	11	56.9172
11	11	0.639823
15	11	37.9247
19	11	0.871012
23	11	41.5162
27	11	46.0392
31	11	28.5508
35	11	19.148
-27.5	11.5	56.2767
-23.5	11.5	56.2651
-19.5	11.5	54.527
-15.5	11.5	58.8063
-11.5	11.5	0.867452
-7.500000	11.5	38.1315
-3.500000	11.5	31.2549
0.500000	11.5	51.1646
4.500000	11.5	60.0785
8.500000	11.5	0.645471
12.5	11.5	24.1208
16.5	11.5	44.9468
20.5	11.5	33.6652
24.5	11.5	8.263434
28.5	11.5	14.9983
32.5	11.5	0.688446
36.5	11.5	0.643655
-26	12	57.4166
-22	12	47.0245
-18	12	60.3608
-14	12	61.2769
-10	12	34.7145
-6.000000	12	0.639823
-2.000000	12	37.6653
2.000000	12	57.6558
6.000000	12	60.0031
10	12	0.805831
14	12	12.9644
18	12	39.9937
22	12	0.639823
26	12	0.639823
30	12	41.9813
34	12	11.5084
38	12	0.639823
-24.5	12.5	62.6062
-20.5	12.5	57.9275
-16.5	12.5	60.5966
-12.5	12.5	45.6746
-8.500000	12.5	0.639823
-4.500000	12.5	33.23
-0.500000	12.5	45.3076
3.500000	12.5	66.3299
7.500000	12.5	34.147
11.5	12.5	0.639823
15.5	12.5	0.639823
19.5	12.5	0.673226
23.5	12.5	0.639823
27.5	12.5	0.640253
31.5	12.5	52.0702
35.5	12.5	5.986747
-27	13	55.8871
-23	13	60.5155
-19	13	59.1431
-15	13	58.3738
-11	13	37.5081
-7.000000	13	0.639823
-3.000000	13	530.839
1.000000	13	57.9682
5.000000	13	60.2017
9.000000	13	43.2879
13	13	37.7826
17	13	1.632489
21	13	61.5248
25	13	46.5926
29	13	46.9309
33	13	0.639823
37	13	0.639823
-25.5	13.5	58.4745
-21.5	13.5	60.5843
-17.5	13.5	61.1005
-13.5	13.5	58.2833
-9.500000	13.5	0.785393
-5.500000	13.5	34.4139
-1.500000	13.5	0.897430
2.500000	13.5	59.3803
6.500000	13.5	58.336
10.5	13.5	46.6907
14.5	13.5	53.2079
18.5	13.5	45.1559
22.5	13.5	32.7354
26.5	13.5	4.999944
30.5	13.5	7.049510
34.5	13.5	48.8
-28	14	63.2357
-24	14	63.797
-20	14	57.0849
-16	14	61.3663
-12	14	44.6558
-8.000000	14	48.7508
-4.000000	14	19.7352
0.000000	14	44.9623
4.000000	14	64.643
8.000000	14	56.9119
12	14	40.7
16	14	0.813340
20	14	0.843801
24	14	0.916719
28	14	0.962255
32	14	0.856644
36	14	0.639823
-26.5	14.5	61.3736
-22.5	14.5	58.3759
-18.5	14.5	63.2128
-14.5	14.5	56.7487
-10.5	14.5	53.9102
-6.500000	14.5	43.0349
-2.500000	14.5	0.639823
1.500000	14.5	56.4522
5.500000	14.5	64.3358
9.500000	14.5	54.8523
13.5	14.5	40.0912
17.5	14.5	567.696
21.5	14.5	0.639823
25.5	14.5	0.639823
29.5	14.5	0.639823
33.5	14.5	0.803499
37.5	14.5	36.1309
-25	15	61.3721
-21	15	60.4599
-17	15	62.9338
-13	15	58.403
-9.000000	15	44.8223
-5.000000	15	55.326
-1.000000	15	53.9589
3.000000	15	57.9312
7.000000	15	57.3066
11	15	51.4782
15	15	3.857052
19	15	0.639823
23	15	0.639823
27	15	50.1467
31	15	58.8565
35	15	0.639823
-27.5	15.5	58.6008
-23.5	15.5	62.2495
-19.5	15.5	62.9857
-15.5	15.5	57.5336
-11.5	15.5	55.3083
-7.500000	15.5	57.8583
-3.500000	15.5	57.8392
0.500000	15.5	56.0636
4.500000	15.5	58.123
8.500000	15.5	61.6163
12.5	15.5	47.9858
16.5	15.5	0.639823
20.5	15.5	0.872658
24.5	15.5	0.736167
28.5	15.5	41.616
32.5	15.5	45.2165
36.5	15.5	55.4817
-26	16	60.3757
-22	16	62.6567
-18	16	61.1916
-14	16	63.1872
-10	16	0.697517
-6.000000	16	57.9554
-2.000000	16	59.6584
2.000000	16	53.0765
6.000000	16	59.9006
10	16	46.228
14	16	0.672106
18	16	1.059383
22	16	1.108925
26	16	1.530249
30	16	49.9981
34	16	0.639823
38	16	64.71
-24.5	16.5	61.2308
-20.5	16.5	59.9129
-16.5	16.5	61.7192
-12.5	16.5	54.8804
-8.500000	16.5	48.8411
-4.500000	16.5	63.5274
-0.500000	16.5	58.7689
3.500000	16.5	45.4427
7.500000	16.5	58.5733
11.5	16.5	51.9918
15.5	16.5	36.9018
19.5	16.5	19.2205
23.5	16.5	42.8819
27.5	16.5	0.639823
31.5	16.5	58.7488
35.5	16.5	59.5461
-27	17	64.2066
-23	17	60.8367
-19	17	59.8897
-15	17	62.0756
-11	17	12.8161
-7.000000	17	62.5727
-3.000000	17	63.0201
1.000000	17	53.5871
5.000000	17	53.3998
9.000000	17	52.6775
13	17	46.1037
17	17	13.0757
21	17	0.639823
25	17	37.7011
29	17	49.8404
33	17	49.9261
37	17	58.9394
-25.5	17.5	57.8292
-21.5	17.5	58.9335
-17.5	17.5	57.03
-13.5	17.5	56.6223
-9.500000	17.5	59.8095
-5.500000	17.5	54.5826
-1.500000	17.5	59.4656
2.500000	17.5	51.9524
6.500000	17.5	59.1356
10.5	17.5	55.0824
14.5	17.5	0.639823
18.5	17.5	0.639823
22.5	17.5	0.639823
26.5	17.5	53.5213
30.5	17.5	59.3908
34.5	17.5	60.4679
-28	18	62.6771
-24	18	68.6133
-20	18	63.1966
-16	18	60.3998
-12	18	48.071
-8.000000	18	57.6131
-4.000000	18	59.5766
0.000000	18	53.2945
4.000000	18	55.0451
8.000000	18	57.9438
12	18	36.9285
16	18	47.5664
20	18	57.03
24	18	30.5595
28	18	54.645
32	18	63.6063
36	18	63.3241
-26.5	18.5	56.3721
-22.5	18.5	60.7298
-18.5	18.5	61.2031
-14.5	18.5	61.7101
-10.5	18.5	43.7675
-6.500000	18.5	59.4325
-2.500000	18.5	59.2684
1.500000	18.5	40.8591
5.500000	18.5	60.3209
9.500000	18.5	60.9298
13.5	18.5	56.5784
17.5	18.5	0.942977
21.5	18.5	0.639823
25.5	18.5	52.0327
29.5	18.5	54.0308
33.5	18.5	52.9226
37.5	18.5	59.3381
-25	19	60.0482
-21	19	54.9963
-17	19	59.2689
-13	19	67.7601
-9.000000	19	57.4287
-5.000000	19	57.5438
-1.000000	19	62.5944
3.000000	19	42.5974
7.000000	19	62.443
11	19	50.0106
15	19	0.639823
19	19	0.915014
23	19	0.639823
27	19	62.0997
31	19	61.1223
35	19	54.316
-27.5	19.5	47.0184
-23.5	19.5	57.5796
-19.5	19.5	62.8602
-15.5	19.5	63.0815
-11.5	19.5	54.9779
-7.500000	19.5	58.3357
-3.500000	19.5	49.2523
0.500000	19.5	27.0433
4.500000	19.5	62.6247
8.500000	19.5	59.8155
12.5	19.5	0.639823
16.5	19.5	0.639823
20.5	19.5	14.8829
24.5	19.5	55.9353
28.5	19.5	61.8114
32.5	19.5	87.9831
36.5	19.5	59.4933
-26	20	64.3744
-22	20	55.5118
-18	20	60.4532
-14	20	63.0458
-10	20	49.749
-6.000000	20	52.1278
-2.000000	20	49.1018
2.000000	20	0.639823
6.000000	20	57.8595
10	20	52.4124
14	20	46.1454
18	20	49.0229
22	20	0.912973
26	20	54.655
30	20	60.7868
34	20	0.639823
38	20	64.164