File: data/derived_data/raman/20170920_Gr-NH2_for_Radisurf/20170920 Gr-NH for Radisurf map 1/SiO2 int.txt
#XList		#YList		#IList
-28	-22	43.9119
-24	-22	6.109615
-20	-22	33.0019
-16	-22	15.4544
-12	-22	24.6702
-8.000000	-22	0.000000
-4.000000	-22	9.467008
0.000000	-22	0.000000
4.000000	-22	30.3436
8.000000	-22	5.902462
12	-22	11.5077
16	-22	3.335028
20	-22	30.6016
24	-22	30.2936
28	-22	35.4692
32	-22	20.7963
36	-22	33.5897
-26.5	-21.5	35.4026
-22.5	-21.5	16.3169
-18.5	-21.5	20.0054
-14.5	-21.5	0.000000
-10.5	-21.5	18.1327
-6.500000	-21.5	15.2548
-2.500000	-21.5	0.000000
1.500000	-21.5	30.7291
5.500000	-21.5	12.5411
9.500000	-21.5	3.435489
13.5	-21.5	71.2481
17.5	-21.5	13.4472
21.5	-21.5	0.000000
25.5	-21.5	29.3531
29.5	-21.5	2.168696
33.5	-21.5	37.167
37.5	-21.5	31.6475
-25	-21	19.5575
-21	-21	0.000000
-17	-21	16.4463
-13	-21	22.1899
-9.000000	-21	12.0486
-5.000000	-21	20.9253
-1.000000	-21	6.134710
3.000000	-21	35.7734
7.000000	-21	10.9704
11	-21	0.000000
15	-21	0.000000
19	-21	11.968
23	-21	10.9398
27	-21	25.4302
31	-21	4.133967
35	-21	33.5031
-27.5	-20.5	35.6024
-23.5	-20.5	0.000000
-19.5	-20.5	5.679845
-15.5	-20.5	2.068515
-11.5	-20.5	34.4228
-7.500000	-20.5	20.8956
-3.500000	-20.5	0.000000
0.500000	-20.5	29.8755
4.500000	-20.5	22.9376
8.500000	-20.5	3.535965
12.5	-20.5	0.000000
16.5	-20.5	11.4127
20.5	-20.5	0.000000
24.5	-20.5	22.6572
28.5	-20.5	9.626853
32.5	-20.5	31.4964
36.5	-20.5	34.5789
-26	-20	36.7821
-22	-20	0.000000
-18	-20	10.5992
-14	-20	25.5189
-10	-20	23.9192
-6.000000	-20	32.1946
-2.000000	-20	30.1439
2.000000	-20	34.4711
6.000000	-20	15.9725
10	-20	13.0395
14	-20	0.000000
18	-20	31.6509
22	-20	5.853338
26	-20	31.7032
30	-20	0.000000
34	-20	33.4577
38	-20	31.6977
-24.5	-19.5	14.9638
-20.5	-19.5	0.000000
-16.5	-19.5	11.9708
-12.5	-19.5	36.4493
-8.500000	-19.5	23.8865
-4.500000	-19.5	22.6646
-0.500000	-19.5	33.5493
3.500000	-19.5	18.4693
7.500000	-19.5	5.192163
11.5	-19.5	4.070970
15.5	-19.5	160.349
19.5	-19.5	8.689147
23.5	-19.5	8.602754
27.5	-19.5	18.7711
31.5	-19.5	28.9832
35.5	-19.5	31.4757
-27	-19	40.0719
-23	-19	13.3269
-19	-19	11.432
-15	-19	15.3762
-11	-19	33.7574
-7.000000	-19	29.4417
-3.000000	-19	24.5843
1.000000	-19	35.7443
5.000000	-19	2.708570
9.000000	-19	8.565885
13	-19	6.042835
17	-19	22.3856
21	-19	176.901
25	-19	33.0089
29	-19	8.264574
33	-19	35.4289
37	-19	32.7229
-25.5	-18.5	37.1421
-21.5	-18.5	20.6597
-17.5	-18.5	15.9211
-13.5	-18.5	33.7418
-9.500000	-18.5	34.4951
-5.500000	-18.5	27.2189
-1.500000	-18.5	12.1966
2.500000	-18.5	3.707538
6.500000	-18.5	5.795189
10.5	-18.5	0.000000
14.5	-18.5	25.4527
18.5	-18.5	18.7408
22.5	-18.5	3.469068
26.5	-18.5	22.4536
30.5	-18.5	16.4616
34.5	-18.5	33.2919
-28	-18	40.0661
-24	-18	37.1054
-20	-18	35.093
-16	-18	15.5986
-12	-18	33.886
-8.000000	-18	34.8328
-4.000000	-18	20.7663
0.000000	-18	24.6016
4.000000	-18	6.746970
8.000000	-18	7.004320
12	-18	61.7275
16	-18	8.839397
20	-18	8.076808
24	-18	23.7
28	-18	27.8668
32	-18	34.8961
36	-18	36.2355
-26.5	-17.5	36.073
-22.5	-17.5	34.0712
-18.5	-17.5	2.471782
-14.5	-17.5	14.6867
-10.5	-17.5	34.609
-6.500000	-17.5	36.6262
-2.500000	-17.5	0.000000
1.500000	-17.5	17.237
5.500000	-17.5	7.056369
9.500000	-17.5	5.357186
13.5	-17.5	0.000000
17.5	-17.5	20.8914
21.5	-17.5	9.368273
25.5	-17.5	12.5767
29.5	-17.5	26.4318
33.5	-17.5	36.316
37.5	-17.5	35.2648
-25	-17	36.8286
-21	-17	35.0413
-17	-17	4.421014
-13	-17	18.9528
-9.000000	-17	39.6605
-5.000000	-17	28.4363
-1.000000	-17	35.6429
3.000000	-17	4.506717
7.000000	-17	9.074276
11	-17	8.843650
15	-17	1.937136
19	-17	10.0581
23	-17	25.0674
27	-17	10.9502
31	-17	12.7583
35	-17	33.9254
-27.5	-16.5	1.409081
-23.5	-16.5	37.6244
-19.5	-16.5	17.5787
-15.5	-16.5	14.2551
-11.5	-16.5	28.0865
-7.500000	-16.5	30.9876
-3.500000	-16.5	12.5229
0.500000	-16.5	0.000000
4.500000	-16.5	9.809553
8.500000	-16.5	14.1106
12.5	-16.5	5.317949
16.5	-16.5	0.000000
20.5	-16.5	23.3418
24.5	-16.5	7.745425
28.5	-16.5	16.5201
32.5	-16.5	32.1135
36.5	-16.5	33.9719
-26	-16	31.7396
-22	-16	36.2484
-18	-16	10.0421
-14	-16	24.5283
-10	-16	22.3745
-6.000000	-16	16.7016
-2.000000	-16	4.763441
2.000000	-16	24.6274
6.000000	-16	11.7499
10	-16	13.1688
14	-16	0.000000
18	-16	7.756108
22	-16	27.263
26	-16	13.3674
30	-16	4.061497
34	-16	32.4299
38	-16	33.2401
-24.5	-15.5	37.1586
-20.5	-15.5	35.6921
-16.5	-15.5	9.125961
-12.5	-15.5	26.868
-8.500000	-15.5	14.5477
-4.500000	-15.5	9.862587
-0.500000	-15.5	2.696150
3.500000	-15.5	16.6244
7.500000	-15.5	14.3127
11.5	-15.5	3.673719
15.5	-15.5	0.000000
19.5	-15.5	28.4449
23.5	-15.5	29.8415
27.5	-15.5	20.1265
31.5	-15.5	23.105
35.5	-15.5	19.2433
-27	-15	21.8774
-23	-15	34.5267
-19	-15	9.322981
-15	-15	9.044529
-11	-15	18.1997
-7.000000	-15	8.888645
-3.000000	-15	68.1116
1.000000	-15	12.7929
5.000000	-15	9.011109
9.000000	-15	14.3927
13	-15	0.000000
17	-15	6.739960
21	-15	27.6306
25	-15	31.2546
29	-15	9.781972
33	-15	29.3226
37	-15	8.027442
-25.5	-14.5	35.5454
-21.5	-14.5	37.0873
-17.5	-14.5	13.6312
-13.5	-14.5	11.5959
-9.500000	-14.5	8.428354
-5.500000	-14.5	10.4955
-1.500000	-14.5	10.9123
2.500000	-14.5	1.978791
6.500000	-14.5	8.962641
10.5	-14.5	22.2825
14.5	-14.5	0.000000
18.5	-14.5	13.525
22.5	-14.5	35.776
26.5	-14.5	32.6061
30.5	-14.5	14.6836
34.5	-14.5	4.586496
-28	-14	38.421
-24	-14	40.9177
-20	-14	35.0655
-16	-14	8.761682
-12	-14	13.0383
-8.000000	-14	10.048
-4.000000	-14	3.726717
0.000000	-14	9.064121
4.000000	-14	6.883471
8.000000	-14	13.9065
12	-14	14.0869
16	-14	9.204422
20	-14	32.0449
24	-14	15.788
28	-14	1.648842
32	-14	19.4451
36	-14	6.706274
-26.5	-13.5	36.708
-22.5	-13.5	37.0427
-18.5	-13.5	14.4145
-14.5	-13.5	7.381951
-10.5	-13.5	27.6062
-6.500000	-13.5	8.519506
-2.500000	-13.5	8.058651
1.500000	-13.5	145.285
5.500000	-13.5	11.0085
9.500000	-13.5	24.7484
13.5	-13.5	13.8881
17.5	-13.5	6.634105
21.5	-13.5	36.2754
25.5	-13.5	30.7857
29.5	-13.5	0.000000
33.5	-13.5	0.000000
37.5	-13.5	17.0592
-25	-13	36.2502
-21	-13	17.5519
-17	-13	14.2752
-13	-13	0.000000
-9.000000	-13	12.0823
-5.000000	-13	9.296521
-1.000000	-13	6.192796
3.000000	-13	8.222162
7.000000	-13	6.152382
11	-13	31.6217
15	-13	19.8585
19	-13	27.3564
23	-13	25.195
27	-13	18.1644
31	-13	32.1944
35	-13	2.132771
-27.5	-12.5	33.9801
-23.5	-12.5	36.554
-19.5	-12.5	35.402
-15.5	-12.5	5.477030
-11.5	-12.5	6.564000
-7.500000	-12.5	7.788607
-3.500000	-12.5	13.3555
0.500000	-12.5	0.583622
4.500000	-12.5	27.5374
8.500000	-12.5	25.9271
12.5	-12.5	36.1478
16.5	-12.5	5.608066
20.5	-12.5	30.85
24.5	-12.5	0.000000
28.5	-12.5	8.509140
32.5	-12.5	31.9243
36.5	-12.5	4.359589
-26	-12	26.1572
-22	-12	37.0535
-18	-12	19.9691
-14	-12	10.7074
-10	-12	0.000000
-6.000000	-12	0.000000
-2.000000	-12	13.6874
2.000000	-12	5.965418
6.000000	-12	10.3745
10	-12	35.3986
14	-12	34.9
18	-12	4.638372
22	-12	36.5552
26	-12	13.7118
30	-12	10.3819
34	-12	7.474564
38	-12	2.500978
-24.5	-11.5	34.6359
-20.5	-11.5	36.7938
-16.5	-11.5	13.5554
-12.5	-11.5	10.0589
-8.500000	-11.5	0.000000
-4.500000	-11.5	0.000000
-0.500000	-11.5	3.236145
3.500000	-11.5	5.420815
7.500000	-11.5	5.350198
11.5	-11.5	33.8839
15.5	-11.5	32.4724
19.5	-11.5	26.3384
23.5	-11.5	1999.66
27.5	-11.5	33.4038
31.5	-11.5	34.0563
35.5	-11.5	0.843619
-27	-11	33.9469
-23	-11	37.7933
-19	-11	5.096890
-15	-11	9.404966
-11	-11	6.271138
-7.000000	-11	4.281982
-3.000000	-11	8.632206
1.000000	-11	0.000000
5.000000	-11	25.0132
9.000000	-11	4.434492
13	-11	34.895
17	-11	8.921819
21	-11	21.0951
25	-11	0.000000
29	-11	30.2626
33	-11	34.167
37	-11	2.906175
-25.5	-10.5	39.8765
-21.5	-10.5	37.7456
-17.5	-10.5	0.000000
-13.5	-10.5	26.0774
-9.500000	-10.5	11.5785
-5.500000	-10.5	0.000000
-1.500000	-10.5	27.6589
2.500000	-10.5	4.422165
6.500000	-10.5	0.000000
10.5	-10.5	23.943
14.5	-10.5	33.8791
18.5	-10.5	13.3294
22.5	-10.5	29.8461
26.5	-10.5	11.3703
30.5	-10.5	33.9106
34.5	-10.5	31.2876
-28	-10	31.2711
-24	-10	35.1165
-20	-10	31.786
-16	-10	0.000000
-12	-10	19.8909
-8.000000	-10	0.000000
-4.000000	-10	0.000000
0.000000	-10	19.2561
4.000000	-10	9.783194
8.000000	-10	0.000000
12	-10	34.536
16	-10	35.1952
20	-10	2.875434
24	-10	0.000000
28	-10	34.7091
32	-10	32.2499
36	-10	31.7974
-26.5	-9.500000	35.0274
-22.5	-9.500000	26.667
-18.5	-9.500000	3.821245
-14.5	-9.500000	0.000000
-10.5	-9.500000	34.0411
-6.500000	-9.500000	0.000000
-2.500000	-9.500000	0.000000
1.500000	-9.500000	2.241296
5.500000	-9.500000	45.1485
9.500000	-9.500000	14.3273
13.5	-9.500000	32.0661
17.5	-9.500000	34.136
21.5	-9.500000	21.27
25.5	-9.500000	3.770535
29.5	-9.500000	32.1597
33.5	-9.500000	27.3482
37.5	-9.500000	4.825398
-25	-9.000000	32.9163
-21	-9.000000	32.7314
-17	-9.000000	0.000000
-13	-9.000000	32.7123
-9.000000	-9.000000	11.6175
-5.000000	-9.000000	0.000000
-1.000000	-9.000000	22.412
3.000000	-9.000000	0.000000
7.000000	-9.000000	53.4305
11	-9.000000	12.6074
15	-9.000000	33.6235
19	-9.000000	13.0079
23	-9.000000	8.930363
27	-9.000000	22.4232
31	-9.000000	32.7266
35	-9.000000	31.3076
-27.5	-8.500000	34.999
-23.5	-8.500000	3.010577
-19.5	-8.500000	26.8806
-15.5	-8.500000	1233.11
-11.5	-8.500000	38.1786
-7.500000	-8.500000	7.075214
-3.500000	-8.500000	0.000000
0.500000	-8.500000	0.000000
4.500000	-8.500000	0.000000
8.500000	-8.500000	5.466050
12.5	-8.500000	23.3579
16.5	-8.500000	30.1039
20.5	-8.500000	25.0586
24.5	-8.500000	4.423661
28.5	-8.500000	24.8544
32.5	-8.500000	12.7421
36.5	-8.500000	31.9978
-26	-8.000000	35.9634
-22	-8.000000	782.451
-18	-8.000000	6.899160
-14	-8.000000	0.000000
-10	-8.000000	7.257931
-6.000000	-8.000000	0.000000
-2.000000	-8.000000	23.5454
2.000000	-8.000000	13.4199
6.000000	-8.000000	10.2222
10	-8.000000	11.5782
14	-8.000000	15.5756
18	-8.000000	20.0449
22	-8.000000	11.2898
26	-8.000000	0.000000
30	-8.000000	18.2636
34	-8.000000	14.325
38	-8.000000	31.5182
-24.5	-7.500000	23.7809
-20.5	-7.500000	15.2148
-16.5	-7.500000	0.000000
-12.5	-7.500000	17.2474
-8.500000	-7.500000	0.000000
-4.500000	-7.500000	0.000000
-0.500000	-7.500000	9.592740
3.500000	-7.500000	14.7572
7.500000	-7.500000	1.582409
11.5	-7.500000	24.7434
15.5	-7.500000	0.000000
19.5	-7.500000	27.4306
23.5	-7.500000	23.4115
27.5	-7.500000	7.101059
31.5	-7.500000	25.1648
35.5	-7.500000	17.2006
-27	-7.000000	31.942
-23	-7.000000	0.000000
-19	-7.000000	15.7742
-15	-7.000000	0.000000
-11	-7.000000	32.4475
-7.000000	-7.000000	0.000000
-3.000000	-7.000000	7.062334
1.000000	-7.000000	0.000000
5.000000	-7.000000	11.7476
9.000000	-7.000000	19.1132
13	-7.000000	19.7563
17	-7.000000	10.1529
21	-7.000000	0.511106
25	-7.000000	16.91
29	-7.000000	2.010350
33	-7.000000	6.501758
37	-7.000000	29.93
-25.5	-6.500000	34.7322
-21.5	-6.500000	0.000000
-17.5	-6.500000	0.000000
-13.5	-6.500000	21.5447
-9.500000	-6.500000	14.0022
-5.500000	-6.500000	0.000000
-1.500000	-6.500000	6.432133
2.500000	-6.500000	18.9564
6.500000	-6.500000	5.552615
10.5	-6.500000	26.5741
14.5	-6.500000	6.225374
18.5	-6.500000	18.6934
22.5	-6.500000	0.000000
26.5	-6.500000	2.266066
30.5	-6.500000	13.8556
34.5	-6.500000	9.324613
-28	-6.000000	25.2425
-24	-6.000000	15.4525
-20	-6.000000	0.000000
-16	-6.000000	0.000000
-12	-6.000000	6.728956
-8.000000	-6.000000	38.0544
-4.000000	-6.000000	19.6688
0.000000	-6.000000	18.7418
4.000000	-6.000000	11.7758
8.000000	-6.000000	10.811
12	-6.000000	8.152117
16	-6.000000	0.000000
20	-6.000000	16.6884
24	-6.000000	12.0322
28	-6.000000	6.364313
32	-6.000000	27.3862
36	-6.000000	26.7982
-26.5	-5.500000	32.0241
-22.5	-5.500000	0.000000
-18.5	-5.500000	46.573
-14.5	-5.500000	10.1764
-10.5	-5.500000	35.3143
-6.500000	-5.500000	5.968083
-2.500000	-5.500000	29.0234
1.500000	-5.500000	26.6772
5.500000	-5.500000	0.000000
9.500000	-5.500000	9.218575
13.5	-5.500000	6.492187
17.5	-5.500000	7.610416
21.5	-5.500000	3.242917
25.5	-5.500000	32.6807
29.5	-5.500000	10.3971
33.5	-5.500000	22.8315
37.5	-5.500000	20.5433
-25	-5.000000	33.9273
-21	-5.000000	0.000000
-17	-5.000000	0.000000
-13	-5.000000	22.4803
-9.000000	-5.000000	33.7944
-5.000000	-5.000000	35.5577
-1.000000	-5.000000	1.674448
3.000000	-5.000000	14.7166
7.000000	-5.000000	23.1364
11	-5.000000	11.8103
15	-5.000000	697.708
19	-5.000000	0.000000
23	-5.000000	0.000000
27	-5.000000	0.000000
31	-5.000000	13.8796
35	-5.000000	19.6648
-27.5	-4.500000	19.1395
-23.5	-4.500000	14.9403
-19.5	-4.500000	0.000000
-15.5	-4.500000	0.000000
-11.5	-4.500000	36.0212
-7.500000	-4.500000	33.8847
-3.500000	-4.500000	38.1321
0.500000	-4.500000	22.7415
4.500000	-4.500000	18.4042
8.500000	-4.500000	10.1816
12.5	-4.500000	5.338863
16.5	-4.500000	3.984748
20.5	-4.500000	1.505884
24.5	-4.500000	0.000000
28.5	-4.500000	9.668059
32.5	-4.500000	27.0112
36.5	-4.500000	22.2188
-26	-4.000000	30.3962
-22	-4.000000	7.542309
-18	-4.000000	0.000000
-14	-4.000000	13.4258
-10	-4.000000	35.5141
-6.000000	-4.000000	34.7104
-2.000000	-4.000000	14.9911
2.000000	-4.000000	26.9235
6.000000	-4.000000	36.208
10	-4.000000	2.229580
14	-4.000000	3.811048
18	-4.000000	0.000000
22	-4.000000	3.465973
26	-4.000000	8.739514
30	-4.000000	15.7498
34	-4.000000	23.2758
38	-4.000000	16.9504
-24.5	-3.500000	35.9051
-20.5	-3.500000	0.000000
-16.5	-3.500000	8.742060
-12.5	-3.500000	34.7731
-8.500000	-3.500000	36.5445
-4.500000	-3.500000	34.0398
-0.500000	-3.500000	21.743
3.500000	-3.500000	30.2231
7.500000	-3.500000	34.4641
11.5	-3.500000	2000
15.5	-3.500000	4.090350
19.5	-3.500000	0.000000
23.5	-3.500000	0.000000
27.5	-3.500000	16.8812
31.5	-3.500000	34.4176
35.5	-3.500000	26.1528
-27	-3.000000	22.089
-23	-3.000000	28.4604
-19	-3.000000	8.864635
-15	-3.000000	6.334704
-11	-3.000000	37.001
-7.000000	-3.000000	35.9772
-3.000000	-3.000000	31.383
1.000000	-3.000000	21.8311
5.000000	-3.000000	28.8521
9.000000	-3.000000	28.872
13	-3.000000	4.401276
17	-3.000000	0.000000
21	-3.000000	4.184364
25	-3.000000	2000
29	-3.000000	10.9804
33	-3.000000	31.3154
37	-3.000000	26.5341
-25.5	-2.500000	32.5142
-21.5	-2.500000	24.2341
-17.5	-2.500000	16.1994
-13.5	-2.500000	28.5785
-9.500000	-2.500000	38.2065
-5.500000	-2.500000	35.0664
-1.500000	-2.500000	13.5615
2.500000	-2.500000	24.0874
6.500000	-2.500000	32.6398
10.5	-2.500000	0.000000
14.5	-2.500000	2.326916
18.5	-2.500000	0.000000
22.5	-2.500000	4.228277
26.5	-2.500000	0.000000
30.5	-2.500000	33.5557
34.5	-2.500000	10.071
-28	-2.000000	7.143818
-24	-2.000000	33.7626
-20	-2.000000	33.407
-16	-2.000000	0.000000
-12	-2.000000	33.7266
-8.000000	-2.000000	36.6282
-4.000000	-2.000000	37.4979
0.000000	-2.000000	21.4456
4.000000	-2.000000	33.9964
8.000000	-2.000000	33.3625
12	-2.000000	2000
16	-2.000000	0.000000
20	-2.000000	0.000000
24	-2.000000	0.000000
28	-2.000000	4.109010
32	-2.000000	31.529
36	-2.000000	14.8711
-26.5	-1.500000	32.3036
-22.5	-1.500000	33.6781
-18.5	-1.500000	23.3624
-14.5	-1.500000	5.186857
-10.5	-1.500000	29.171
-6.500000	-1.500000	35.1712
-2.500000	-1.500000	33.2657
1.500000	-1.500000	26.1122
5.500000	-1.500000	24.2647
9.500000	-1.500000	19.5362
13.5	-1.500000	0.000000
17.5	-1.500000	0.000000
21.5	-1.500000	6.933783
25.5	-1.500000	0.000000
29.5	-1.500000	11.9245
33.5	-1.500000	33.4118
37.5	-1.500000	9.369622
-25	-1.000000	35.5023
-21	-1.000000	36.3204
-17	-1.000000	40.8
-13	-1.000000	29.4124
-9.000000	-1.000000	9.642015
-5.000000	-1.000000	35.9414
-1.000000	-1.000000	58.2317
3.000000	-1.000000	34.6224
7.000000	-1.000000	13.6297
11	-1.000000	1069.57
15	-1.000000	0.000000
19	-1.000000	27.9965
23	-1.000000	9.176710
27	-1.000000	0.000000
31	-1.000000	11.9529
35	-1.000000	18.9415
-27.5	-0.500000	17.4599
-23.5	-0.500000	35.187
-19.5	-0.500000	30.752
-15.5	-0.500000	4.278347
-11.5	-0.500000	8.355611
-7.500000	-0.500000	35.5516
-3.500000	-0.500000	36.1074
0.500000	-0.500000	22.247
4.500000	-0.500000	33.258
8.500000	-0.500000	22.2742
12.5	-0.500000	0.000000
16.5	-0.500000	5.571776
20.5	-0.500000	0.000000
24.5	-0.500000	78.5833
28.5	-0.500000	2.027250
32.5	-0.500000	33.3596
36.5	-0.500000	27.4983
-26	0.000000	17.2772
-22	0.000000	34.5554
-18	0.000000	0.000000
-14	0.000000	6.556730
-10	0.000000	4.794432
-6.000000	0.000000	35.0201
-2.000000	0.000000	7.671327
2.000000	0.000000	34.2975
6.000000	0.000000	6.363125
10	0.000000	5.963074
14	0.000000	0.000000
18	0.000000	0.000000
22	0.000000	22.6977
26	0.000000	0.000000
30	0.000000	3.588394
34	0.000000	35.5809
38	0.000000	11.2072
-24.5	0.500000	29.6805
-20.5	0.500000	36.2697
-16.5	0.500000	2.112560
-12.5	0.500000	9.196775
-8.500000	0.500000	9.526752
-4.500000	0.500000	35.4951
-0.500000	0.500000	0.000000
3.500000	0.500000	25.7657
7.500000	0.500000	15.6026
11.5	0.500000	0.000000
15.5	0.500000	0.775545
19.5	0.500000	0.000000
23.5	0.500000	8.630737
27.5	0.500000	2.911740
31.5	0.500000	29.2856
35.5	0.500000	31.2064
-27	1.000000	5.872143
-23	1.000000	14.2753
-19	1.000000	20.9665
-15	1.000000	0.000000
-11	1.000000	5.108426
-7.000000	1.000000	34.1051
-3.000000	1.000000	14.9026
1.000000	1.000000	0.000000
5.000000	1.000000	8.169089
9.000000	1.000000	10.6882
13	1.000000	13.5817
17	1.000000	2000
21	1.000000	0.000000
25	1.000000	0.000000
29	1.000000	6.285220
33	1.000000	34.1794
37	1.000000	31.6902
-25.5	1.500000	0.000000
-21.5	1.500000	6.429087
-17.5	1.500000	0.000000
-13.5	1.500000	3.904862
-9.500000	1.500000	22.1153
-5.500000	1.500000	35.215
-1.500000	1.500000	6.653070
2.500000	1.500000	27.8007
6.500000	1.500000	0.000000
10.5	1.500000	0.000000
14.5	1.500000	0.000000
18.5	1.500000	0.000000
22.5	1.500000	0.000000
26.5	1.500000	0.000000
30.5	1.500000	15.4418
34.5	1.500000	34.4639
-28	2.000000	0.000000
-24	2.000000	6.506892
-20	2.000000	29.1847
-16	2.000000	1.393205
-12	2.000000	0.000000
-8.000000	2.000000	14.5752
-4.000000	2.000000	25.0205
0.000000	2.000000	2.461162
4.000000	2.000000	8.663870
8.000000	2.000000	9.254676
12	2.000000	7.453104
16	2.000000	9.240336
20	2.000000	0.000000
24	2.000000	0.000000
28	2.000000	12.7817
32	2.000000	33.3573
36	2.000000	31.1322
-26.5	2.500000	3.341923
-22.5	2.500000	21.257
-18.5	2.500000	3.137472
-14.5	2.500000	0.000000
-10.5	2.500000	26.2264
-6.500000	2.500000	28.6148
-2.500000	2.500000	0.000000
1.500000	2.500000	1336.41
5.500000	2.500000	0.000000
9.500000	2.500000	8.652440
13.5	2.500000	0.000000
17.5	2.500000	0.000000
21.5	2.500000	10.4699
25.5	2.500000	0.000000
29.5	2.500000	1.334565
33.5	2.500000	34.4517
37.5	2.500000	33.1222
-25	3.000000	496.47
-21	3.000000	19.7669
-17	3.000000	20.418
-13	3.000000	0.000000
-9.000000	3.000000	0.000000
-5.000000	3.000000	27.3857
-1.000000	3.000000	0.000000
3.000000	3.000000	0.000000
7.000000	3.000000	0.000000
11	3.000000	3.413383
15	3.000000	0.000000
19	3.000000	0.000000
23	3.000000	0.000000
27	3.000000	0.000000
31	3.000000	18.4267
35	3.000000	35.4853
-27.5	3.500000	0.000000
-23.5	3.500000	0.000000
-19.5	3.500000	5.966105
-15.5	3.500000	29.7526
-11.5	3.500000	0.000000
-7.500000	3.500000	0.000000
-3.500000	3.500000	3.139931
0.500000	3.500000	2000
4.500000	3.500000	0.000000
8.500000	3.500000	1.566936
12.5	3.500000	0.000000
16.5	3.500000	0.000000
20.5	3.500000	0.000000
24.5	3.500000	0.841307
28.5	3.500000	2.873227
32.5	3.500000	35.8933
36.5	3.500000	8.412809
-26	4.000000	0.000000
-22	4.000000	29.645
-18	4.000000	4.544384
-14	4.000000	17.052
-10	4.000000	0.000000
-6.000000	4.000000	4.857763
-2.000000	4.000000	0.000000
2.000000	4.000000	21.8643
6.000000	4.000000	0.000000
10	4.000000	0.000000
14	4.000000	1.756626
18	4.000000	380.282
22	4.000000	0.000000
26	4.000000	0.000000
30	4.000000	16.2224
34	4.000000	34.9849
38	4.000000	18.6633
-24.5	4.500000	26.837
-20.5	4.500000	9.111645
-16.5	4.500000	0.000000
-12.5	4.500000	0.000000
-8.500000	4.500000	2000
-4.500000	4.500000	8.190166
-0.500000	4.500000	0.000000
3.500000	4.500000	0.000000
7.500000	4.500000	9.964693
11.5	4.500000	0.000000
15.5	4.500000	0.000000
19.5	4.500000	0.000000
23.5	4.500000	12.152
27.5	4.500000	3.237501
31.5	4.500000	35.7959
35.5	4.500000	17.3869
-27	5.000000	0.000000
-23	5.000000	21.1513
-19	5.000000	23.8495
-15	5.000000	0.000000
-11	5.000000	0.000000
-7.000000	5.000000	0.000000
-3.000000	5.000000	0.000000
1.000000	5.000000	0.000000
5.000000	5.000000	0.000000
9.000000	5.000000	0.000000
13	5.000000	6.946494
17	5.000000	6.714240
21	5.000000	0.000000
25	5.000000	0.000000
29	5.000000	2000
33	5.000000	31.4781
37	5.000000	0.000000
-25.5	5.500000	25.9662
-21.5	5.500000	23.0298
-17.5	5.500000	11.9817
-13.5	5.500000	0.000000
-9.500000	5.500000	0.000000
-5.500000	5.500000	0.000000
-1.500000	5.500000	0.000000
2.500000	5.500000	0.000000
6.500000	5.500000	0.000000
10.5	5.500000	0.000000
14.5	5.500000	3.916689
18.5	5.500000	0.000000
22.5	5.500000	0.000000
26.5	5.500000	2000
30.5	5.500000	19.7364
34.5	5.500000	7.972558
-28	6.000000	0.000000
-24	6.000000	33.8006
-20	6.000000	14.4614
-16	6.000000	0.000000
-12	6.000000	0.210761
-8.000000	6.000000	0.000000
-4.000000	6.000000	0.000000
0.000000	6.000000	0.000000
4.000000	6.000000	0.000000
8.000000	6.000000	0.000000
12	6.000000	3.563311
16	6.000000	9.219145
20	6.000000	42.6105
24	6.000000	9.479002
28	6.000000	0.000000
32	6.000000	27.6993
36	6.000000	0.000000
-26.5	6.500000	23.8608
-22.5	6.500000	12.0475
-18.5	6.500000	2.632539
-14.5	6.500000	0.000000
-10.5	6.500000	0.000000
-6.500000	6.500000	0.000000
-2.500000	6.500000	0.000000
1.500000	6.500000	0.000000
5.500000	6.500000	0.000000
9.500000	6.500000	0.000000
13.5	6.500000	5.494276
17.5	6.500000	0.000000
21.5	6.500000	0.000000
25.5	6.500000	0.000000
29.5	6.500000	0.000000
33.5	6.500000	0.184264
37.5	6.500000	0.824836
-25	7.000000	32.6615
-21	7.000000	17.5758
-17	7.000000	14.3236
-13	7.000000	0.000000
-9.000000	7.000000	0.000000
-5.000000	7.000000	0.000000
-1.000000	7.000000	0.000000
3.000000	7.000000	0.000000
7.000000	7.000000	0.000000
11	7.000000	0.000000
15	7.000000	0.000000
19	7.000000	9.144619
23	7.000000	0.000000
27	7.000000	0.000000
31	7.000000	0.000000
35	7.000000	0.000000
-27.5	7.500000	34.3991
-23.5	7.500000	30.6599
-19.5	7.500000	4.933545
-15.5	7.500000	0.000000
-11.5	7.500000	0.000000
-7.500000	7.500000	0.000000
-3.500000	7.500000	0.000000
0.500000	7.500000	3.952591
4.500000	7.500000	0.000000
8.500000	7.500000	0.000000
12.5	7.500000	0.000000
16.5	7.500000	0.000000
20.5	7.500000	0.000000
24.5	7.500000	3.814900
28.5	7.500000	12.3693
32.5	7.500000	10.1112
36.5	7.500000	0.000000
-26	8.000000	34.8801
-22	8.000000	15.6072
-18	8.000000	0.000000
-14	8.000000	0.000000
-10	8.000000	0.000000
-6.000000	8.000000	0.000000
-2.000000	8.000000	0.000000
2.000000	8.000000	0.000000
6.000000	8.000000	2000
10	8.000000	0.000000
14	8.000000	8.027012
18	8.000000	0.000000
22	8.000000	2.110977
26	8.000000	0.000000
30	8.000000	13.7232
34	8.000000	0.000000
38	8.000000	2.361228
-24.5	8.500000	36.0255
-20.5	8.500000	16.4847
-16.5	8.500000	9.050364
-12.5	8.500000	2000
-8.500000	8.500000	0.000000
-4.500000	8.500000	0.000000
-0.500000	8.500000	2000
3.500000	8.500000	0.000000
7.500000	8.500000	0.000000
11.5	8.500000	9.318581
15.5	8.500000	14.4354
19.5	8.500000	3.362286
23.5	8.500000	0.000000
27.5	8.500000	58.058
31.5	8.500000	0.000000
35.5	8.500000	0.000000
-27	9.000000	35.0802
-23	9.000000	27.3743
-19	9.000000	20.7922
-15	9.000000	0.000000
-11	9.000000	0.000000
-7.000000	9.000000	0.000000
-3.000000	9.000000	4.822686
1.000000	9.000000	13.2601
5.000000	9.000000	21.8445
9.000000	9.000000	0.000000
13	9.000000	6.508978
17	9.000000	0.000000
21	9.000000	0.000000
25	9.000000	0.000000
29	9.000000	6.321938
33	9.000000	1.524801
37	9.000000	2.756314
-25.5	9.500000	33.0173
-21.5	9.500000	19.6232
-17.5	9.500000	22.8982
-13.5	9.500000	65.8357
-9.500000	9.500000	0.000000
-5.500000	9.500000	0.000000
-1.500000	9.500000	31.4137
2.500000	9.500000	16.0292
6.500000	9.500000	12.5127
10.5	9.500000	0.000000
14.5	9.500000	0.000000
18.5	9.500000	0.000000
22.5	9.500000	0.000000
26.5	9.500000	0.000000
30.5	9.500000	1.215459
34.5	9.500000	8.990612
-28	10	40.2377
-24	10	32.824
-20	10	21.8622
-16	10	21.2189
-12	10	4.449226
-8.000000	10	0.000000
-4.000000	10	0.000000
0.000000	10	10.8239
4.000000	10	34.2636
8.000000	10	5.643775
12	10	0.000000
16	10	12.6696
20	10	2.915739
24	10	0.000000
28	10	0.000000
32	10	4.174030
36	10	15.7757
-26.5	10.5	31.9316
-22.5	10.5	14.1806
-18.5	10.5	36.9224
-14.5	10.5	17.8527
-10.5	10.5	0.000000
-6.500000	10.5	0.000000
-2.500000	10.5	1.582961
1.500000	10.5	4.330907
5.500000	10.5	33.352
9.500000	10.5	182.153
13.5	10.5	4.871697
17.5	10.5	4.634754
21.5	10.5	0.000000
25.5	10.5	0.000000
29.5	10.5	0.000000
33.5	10.5	0.000000
37.5	10.5	4.889363
-25	11	35.3841
-21	11	30.5476
-17	11	19.8121
-13	11	2.085625
-9.000000	11	0.000000
-5.000000	11	0.000000
-1.000000	11	13.8004
3.000000	11	34.2277
7.000000	11	17.9013
11	11	0.000000
15	11	4.861042
19	11	11.1337
23	11	0.000000
27	11	0.000000
31	11	0.000000
35	11	3.337363
-27.5	11.5	31.9589
-23.5	11.5	32.7321
-19.5	11.5	35.3507
-15.5	11.5	30.1062
-11.5	11.5	64.1168
-7.500000	11.5	0.000000
-3.500000	11.5	0.000000
0.500000	11.5	10.212
4.500000	11.5	34.5094
8.500000	11.5	3.562732
12.5	11.5	3.053715
16.5	11.5	0.000000
20.5	11.5	14.2348
24.5	11.5	5.919045
28.5	11.5	2.944528
32.5	11.5	6.300923
36.5	11.5	1859.73
-26	12	32.7838
-22	12	23.2273
-18	12	31.5586
-14	12	34.5566
-10	12	0.000000
-6.000000	12	0.000000
-2.000000	12	0.000000
2.000000	12	19.2241
6.000000	12	34.8608
10	12	17.9952
14	12	11.0425
18	12	0.000000
22	12	7.764485
26	12	0.000000
30	12	5.517829
34	12	5.765159
38	12	0.000000
-24.5	12.5	34.8001
-20.5	12.5	36.4172
-16.5	12.5	33.9653
-12.5	12.5	16.9814
-8.500000	12.5	0.000000
-4.500000	12.5	0.000000
-0.500000	12.5	9.611670
3.500000	12.5	35.5295
7.500000	12.5	17.8885
11.5	12.5	4.246563
15.5	12.5	0.000000
19.5	12.5	3.712232
23.5	12.5	0.000000
27.5	12.5	1537
31.5	12.5	8.024487
35.5	12.5	6.501066
-27	13	37.5231
-23	13	35.532
-19	13	35.8377
-15	13	37.5886
-11	13	16.7468
-7.000000	13	0.000000
-3.000000	13	0.000000
1.000000	13	7.698747
5.000000	13	33.9883
9.000000	13	3.900481
13	13	9.052708
17	13	4.973348
21	13	4.035830
25	13	0.000000
29	13	0.000000
33	13	0.000000
37	13	6.181521
-25.5	13.5	35.8519
-21.5	13.5	31.9649
-17.5	13.5	33.1677
-13.5	13.5	36.2524
-9.500000	13.5	13.7916
-5.500000	13.5	0.000000
-1.500000	13.5	27.3663
2.500000	13.5	32.8408
6.500000	13.5	33.7066
10.5	13.5	3.152519
14.5	13.5	8.763899
18.5	13.5	0.461851
22.5	13.5	7.235273
26.5	13.5	4.240954
30.5	13.5	11.5004
34.5	13.5	0.000000
-28	14	36.8104
-24	14	35.5984
-20	14	37.8186
-16	14	34.7106
-12	14	23.5306
-8.000000	14	0.000000
-4.000000	14	6.545619
0.000000	14	20.89
4.000000	14	35.029
8.000000	14	37.1218
12	14	12.2069
16	14	47.5977
20	14	39.2539
24	14	11.034
28	14	2000
32	14	22.6227
36	14	0.000000
-26.5	14.5	37.3348
-22.5	14.5	36.6621
-18.5	14.5	35.1395
-14.5	14.5	35.1532
-10.5	14.5	24.9832
-6.500000	14.5	18.8098
-2.500000	14.5	0.000000
1.500000	14.5	35.4759
5.500000	14.5	34.6838
9.500000	14.5	32.2592
13.5	14.5	9.703352
17.5	14.5	4.167538
21.5	14.5	7.967384
25.5	14.5	0.000000
29.5	14.5	0.000000
33.5	14.5	2.201050
37.5	14.5	9.132380
-25	15	35.1309
-21	15	36.7629
-17	15	28.8875
-13	15	38.1016
-9.000000	15	22.8176
-5.000000	15	33.5574
-1.000000	15	18.0254
3.000000	15	33.9852
7.000000	15	36.9489
11	15	22.9255
15	15	14.0534
19	15	2000
23	15	3.698566
27	15	0.000000
31	15	21.7204
35	15	0.000000
-27.5	15.5	37.802
-23.5	15.5	36.6624
-19.5	15.5	33.5495
-15.5	15.5	39.3915
-11.5	15.5	29.594
-7.500000	15.5	36.7594
-3.500000	15.5	33.9371
0.500000	15.5	27.6464
4.500000	15.5	34.3266
8.500000	15.5	34.4902
12.5	15.5	5.420868
16.5	15.5	0.000000
20.5	15.5	119.13
24.5	15.5	5.777075
28.5	15.5	0.000000
32.5	15.5	10.5747
36.5	15.5	27.1005
-26	16	36.5223
-22	16	34.9119
-18	16	36.5976
-14	16	34.9804
-10	16	3.108751
-6.000000	16	37.243
-2.000000	16	34.6566
2.000000	16	26.955
6.000000	16	36.5119
10	16	18.2194
14	16	11.9767
18	16	24.7032
22	16	5.309113
26	16	4.465555
30	16	9.343898
34	16	2.677972
38	16	30.9464
-24.5	16.5	36.6047
-20.5	16.5	33.6659
-16.5	16.5	34.2498
-12.5	16.5	36.4189
-8.500000	16.5	15.8075
-4.500000	16.5	33.8673
-0.500000	16.5	35.1897
3.500000	16.5	14.7749
7.500000	16.5	34.8318
11.5	16.5	24.7188
15.5	16.5	9.599904
19.5	16.5	4.393911
23.5	16.5	5.412365
27.5	16.5	0.000000
31.5	16.5	34.9825
35.5	16.5	20.3031
-27	17	36.8188
-23	17	35.1654
-19	17	34.7251
-15	17	36.8322
-11	17	3.997394
-7.000000	17	38.5097
-3.000000	17	33.6198
1.000000	17	24.4835
5.000000	17	27.8356
9.000000	17	28.9571
13	17	21.6892
17	17	6.410996
21	17	0.000000
25	17	12.0485
29	17	11.9197
33	17	25.6527
37	17	37.0496
-25.5	17.5	37.5233
-21.5	17.5	36.0712
-17.5	17.5	36.5639
-13.5	17.5	30.4505
-9.500000	17.5	8.885153
-5.500000	17.5	35.1618
-1.500000	17.5	36.9663
2.500000	17.5	16.8245
6.500000	17.5	35.5939
10.5	17.5	25.3424
14.5	17.5	0.000000
18.5	17.5	0.000000
22.5	17.5	0.000000
26.5	17.5	31.4026
30.5	17.5	31.9215
34.5	17.5	19.4841
-28	18	39.7116
-24	18	32.4315
-20	18	33.5391
-16	18	39.9734
-12	18	8.102128
-8.000000	18	34.0771
-4.000000	18	38.8155
0.000000	18	35.0046
4.000000	18	21.8398
8.000000	18	34.4865
12	18	8.761474
16	18	0.000000
20	18	0.890477
24	18	5.390141
28	18	24.5064
32	18	35.3323
36	18	35.3394
-26.5	18.5	32.9143
-22.5	18.5	33.383
-18.5	18.5	34.775
-14.5	18.5	29.9216
-10.5	18.5	18.5122
-6.500000	18.5	38.0086
-2.500000	18.5	36.7821
1.500000	18.5	9.195062
5.500000	18.5	37.5513
9.500000	18.5	31.9813
13.5	18.5	4.982436
17.5	18.5	7.033143
21.5	18.5	0.000000
25.5	18.5	19.1957
29.5	18.5	36.6707
33.5	18.5	30.5087
37.5	18.5	35.6611
-25	19	36.2397
-21	19	35.7062
-17	19	36.3965
-13	19	27.8136
-9.000000	19	25.604
-5.000000	19	36.9654
-1.000000	19	32.83
3.000000	19	0.000000
7.000000	19	35.1063
11	19	17.1873
15	19	2.408518
19	19	15.8411
23	19	0.000000
27	19	31.7393
31	19	32.3569
35	19	31.2242
-27.5	19.5	25.53
-23.5	19.5	36.7198
-19.5	19.5	35.3691
-15.5	19.5	33.6166
-11.5	19.5	27.8441
-7.500000	19.5	36.7229
-3.500000	19.5	25.2635
0.500000	19.5	10.7777
4.500000	19.5	33.0223
8.500000	19.5	35.502
12.5	19.5	0.000000
16.5	19.5	1.238007
20.5	19.5	1.414857
24.5	19.5	32.5536
28.5	19.5	33.4852
32.5	19.5	12.5831
36.5	19.5	32.0369
-26	20	32.2206
-22	20	34.0222
-18	20	36.3904
-14	20	32.9931
-10	20	15.4071
-6.000000	20	26.9387
-2.000000	20	21.0007
2.000000	20	5.540103
6.000000	20	34.9145
10	20	26.0962
14	20	0.000000
18	20	19.6003
22	20	2000
26	20	33.7589
30	20	36.0229
34	20	3.489689
38	20	32.3335