File: data/derived_data/raman/20170920_Gr-NH2_for_Radisurf/20170920 Gr-NH for Radisurf map 1/SiO2 pos.txt
#XList		#YList		#IList
-28	-22	967.587
-24	-22	976.213
-20	-22	966.495
-16	-22	1100
-12	-22	968.186
-8.000000	-22	980.934
-4.000000	-22	974.829
0.000000	-22	966.591
4.000000	-22	966.723
8.000000	-22	973.837
12	-22	991.491
16	-22	976.072
20	-22	956.146
24	-22	964.508
28	-22	966.846
32	-22	969.228
36	-22	967.482
-26.5	-21.5	966.602
-22.5	-21.5	948.686
-18.5	-21.5	967.546
-14.5	-21.5	959.533
-10.5	-21.5	967.765
-6.500000	-21.5	1100
-2.500000	-21.5	967.284
1.500000	-21.5	967.316
5.500000	-21.5	970.047
9.500000	-21.5	975.487
13.5	-21.5	956.504
17.5	-21.5	968.576
21.5	-21.5	966.344
25.5	-21.5	966.848
29.5	-21.5	965.914
33.5	-21.5	965.986
37.5	-21.5	967.418
-25	-21	969.613
-21	-21	947.169
-17	-21	966.086
-13	-21	971.367
-9.000000	-21	968.179
-5.000000	-21	963.158
-1.000000	-21	985.241
3.000000	-21	967.303
7.000000	-21	974.367
11	-21	923.072
15	-21	961.323
19	-21	966.446
23	-21	957.442
27	-21	968.947
31	-21	972.339
35	-21	965.883
-27.5	-20.5	965.483
-23.5	-20.5	967.984
-19.5	-20.5	973.109
-15.5	-20.5	966.838
-11.5	-20.5	967.121
-7.500000	-20.5	969.552
-3.500000	-20.5	961.556
0.500000	-20.5	967.571
4.500000	-20.5	964.766
8.500000	-20.5	971.182
12.5	-20.5	969.02
16.5	-20.5	971.554
20.5	-20.5	1100
24.5	-20.5	965.585
28.5	-20.5	960.856
32.5	-20.5	969.116
36.5	-20.5	967.606
-26	-20	966.054
-22	-20	900
-18	-20	977.036
-14	-20	967.399
-10	-20	969.321
-6.000000	-20	965.372
-2.000000	-20	966.698
2.000000	-20	968.695
6.000000	-20	1003.1
10	-20	972.65
14	-20	931.176
18	-20	967.033
22	-20	971.428
26	-20	967.233
30	-20	975.246
34	-20	964.188
38	-20	966.288
-24.5	-19.5	971.555
-20.5	-19.5	900
-16.5	-19.5	1004.8
-12.5	-19.5	967.5
-8.500000	-19.5	965.742
-4.500000	-19.5	969.508
-0.500000	-19.5	966.655
3.500000	-19.5	967.237
7.500000	-19.5	974.982
11.5	-19.5	981.758
15.5	-19.5	1100
19.5	-19.5	969.797
23.5	-19.5	964.782
27.5	-19.5	966.302
31.5	-19.5	966.94
35.5	-19.5	967.293
-27	-19	965.315
-23	-19	971.82
-19	-19	976.306
-15	-19	970.536
-11	-19	966.346
-7.000000	-19	964.994
-3.000000	-19	971.019
1.000000	-19	965.67
5.000000	-19	988.809
9.000000	-19	1100
13	-19	1100
17	-19	968.949
21	-19	1100
25	-19	967.124
29	-19	965.037
33	-19	966.567
37	-19	965.909
-25.5	-18.5	966.195
-21.5	-18.5	967.396
-17.5	-18.5	965.402
-13.5	-18.5	966.472
-9.500000	-18.5	970.025
-5.500000	-18.5	965.582
-1.500000	-18.5	961.014
2.500000	-18.5	962.4
6.500000	-18.5	968.039
10.5	-18.5	968.283
14.5	-18.5	966.595
18.5	-18.5	965.365
22.5	-18.5	948.471
26.5	-18.5	966.134
30.5	-18.5	965.849
34.5	-18.5	966.711
-28	-18	966.848
-24	-18	965.844
-20	-18	967.477
-16	-18	968.006
-12	-18	966.712
-8.000000	-18	964.102
-4.000000	-18	964.899
0.000000	-18	966.497
4.000000	-18	973.903
8.000000	-18	1100
12	-18	984.035
16	-18	970.193
20	-18	981.297
24	-18	965.98
28	-18	967.725
32	-18	965.188
36	-18	966.18
-26.5	-17.5	965.595
-22.5	-17.5	967.246
-18.5	-17.5	965.897
-14.5	-17.5	966.502
-10.5	-17.5	969.558
-6.500000	-17.5	966.957
-2.500000	-17.5	987.164
1.500000	-17.5	971.096
5.500000	-17.5	958.436
9.500000	-17.5	961.473
13.5	-17.5	1100
17.5	-17.5	962.904
21.5	-17.5	960.819
25.5	-17.5	1100
29.5	-17.5	965.207
33.5	-17.5	966.44
37.5	-17.5	965.832
-25	-17	965.893
-21	-17	965.674
-17	-17	970.49
-13	-17	970.63
-9.000000	-17	966.23
-5.000000	-17	966.738
-1.000000	-17	943.035
3.000000	-17	968.062
7.000000	-17	970.203
11	-17	969.649
15	-17	964.134
19	-17	965.241
23	-17	968.467
27	-17	968.165
31	-17	966.41
35	-17	968.177
-27.5	-16.5	964.575
-23.5	-16.5	964.873
-19.5	-16.5	967.095
-15.5	-16.5	959.91
-11.5	-16.5	967.032
-7.500000	-16.5	966.783
-3.500000	-16.5	968.197
0.500000	-16.5	954.469
4.500000	-16.5	966.847
8.500000	-16.5	968.854
12.5	-16.5	1100
16.5	-16.5	913.328
20.5	-16.5	966.556
24.5	-16.5	966.879
28.5	-16.5	967.069
32.5	-16.5	968.014
36.5	-16.5	967.748
-26	-16	968.313
-22	-16	968.24
-18	-16	955.182
-14	-16	970.978
-10	-16	963.587
-6.000000	-16	970.497
-2.000000	-16	985.108
2.000000	-16	968.108
6.000000	-16	961.895
10	-16	957.555
14	-16	965.493
18	-16	968.38
22	-16	963.928
26	-16	970.442
30	-16	957.817
34	-16	967.148
38	-16	966.119
-24.5	-15.5	967.207
-20.5	-15.5	968.525
-16.5	-15.5	968.399
-12.5	-15.5	963.788
-8.500000	-15.5	967.219
-4.500000	-15.5	974.617
-0.500000	-15.5	956.857
3.500000	-15.5	965.263
7.500000	-15.5	974.123
11.5	-15.5	971.765
15.5	-15.5	967.378
19.5	-15.5	967.034
23.5	-15.5	967.509
27.5	-15.5	970.483
31.5	-15.5	967.121
35.5	-15.5	967.46
-27	-15	965.309
-23	-15	968.145
-19	-15	961.008
-15	-15	977.761
-11	-15	977.829
-7.000000	-15	968.758
-3.000000	-15	960.473
1.000000	-15	965.124
5.000000	-15	959.623
9.000000	-15	970.503
13	-15	970.895
17	-15	1100
21	-15	966.242
25	-15	966.915
29	-15	946.848
33	-15	965.678
37	-15	968.389
-25.5	-14.5	967.726
-21.5	-14.5	967.749
-17.5	-14.5	957.697
-13.5	-14.5	967.821
-9.500000	-14.5	971.675
-5.500000	-14.5	968.38
-1.500000	-14.5	962.967
2.500000	-14.5	962.806
6.500000	-14.5	964.072
10.5	-14.5	963.873
14.5	-14.5	960.479
18.5	-14.5	976.165
22.5	-14.5	967.204
26.5	-14.5	965.528
30.5	-14.5	969.149
34.5	-14.5	988.046
-28	-14	965.682
-24	-14	966.292
-20	-14	965.745
-16	-14	988.317
-12	-14	964.866
-8.000000	-14	973.51
-4.000000	-14	974.483
0.000000	-14	958.979
4.000000	-14	977.19
8.000000	-14	969.506
12	-14	976.26
16	-14	977.505
20	-14	966.18
24	-14	969.749
28	-14	965.236
32	-14	970.581
36	-14	1065.11
-26.5	-13.5	966.398
-22.5	-13.5	966.718
-18.5	-13.5	963.216
-14.5	-13.5	979.123
-10.5	-13.5	968.031
-6.500000	-13.5	967.277
-2.500000	-13.5	966.787
1.500000	-13.5	951.742
5.500000	-13.5	961.214
9.500000	-13.5	965.658
13.5	-13.5	977.708
17.5	-13.5	970.907
21.5	-13.5	965.106
25.5	-13.5	968.582
29.5	-13.5	963.919
33.5	-13.5	1100
37.5	-13.5	971.741
-25	-13	966.115
-21	-13	967.289
-17	-13	977.193
-13	-13	963.556
-9.000000	-13	974.899
-5.000000	-13	972.426
-1.000000	-13	976.255
3.000000	-13	970.642
7.000000	-13	983.224
11	-13	965.195
15	-13	972.149
19	-13	969.305
23	-13	966.259
27	-13	969.178
31	-13	967.575
35	-13	967.464
-27.5	-12.5	966.29
-23.5	-12.5	967.152
-19.5	-12.5	966.43
-15.5	-12.5	964.294
-11.5	-12.5	980.422
-7.500000	-12.5	957.894
-3.500000	-12.5	987.864
0.500000	-12.5	1012.58
4.500000	-12.5	966.657
8.500000	-12.5	966.795
12.5	-12.5	965.889
16.5	-12.5	952.445
20.5	-12.5	965.827
24.5	-12.5	965.281
28.5	-12.5	969.728
32.5	-12.5	967.647
36.5	-12.5	966.876
-26	-12	966.155
-22	-12	966.096
-18	-12	966.643
-14	-12	970.9
-10	-12	1012.26
-6.000000	-12	965.221
-2.000000	-12	1100
2.000000	-12	975.128
6.000000	-12	973.486
10	-12	965.931
14	-12	964.872
18	-12	976.982
22	-12	966.968
26	-12	981.046
30	-12	964.79
34	-12	960.908
38	-12	975.764
-24.5	-11.5	966.994
-20.5	-11.5	967.849
-16.5	-11.5	966.117
-12.5	-11.5	977.014
-8.500000	-11.5	972.379
-4.500000	-11.5	967.966
-0.500000	-11.5	969.762
3.500000	-11.5	970.265
7.500000	-11.5	973.315
11.5	-11.5	967.878
15.5	-11.5	965.777
19.5	-11.5	967.109
23.5	-11.5	973.988
27.5	-11.5	965.166
31.5	-11.5	966.592
35.5	-11.5	970.295
-27	-11	967.604
-23	-11	968.125
-19	-11	973.766
-15	-11	969.908
-11	-11	968.964
-7.000000	-11	990.064
-3.000000	-11	969.774
1.000000	-11	1025.36
5.000000	-11	963.073
9.000000	-11	966.965
13	-11	968.925
17	-11	956.35
21	-11	963.609
25	-11	900
29	-11	966.86
33	-11	965.1
37	-11	975.504
-25.5	-10.5	966.398
-21.5	-10.5	968.794
-17.5	-10.5	961.819
-13.5	-10.5	964.588
-9.500000	-10.5	978.955
-5.500000	-10.5	965.506
-1.500000	-10.5	968.743
2.500000	-10.5	969.99
6.500000	-10.5	924.821
10.5	-10.5	967.656
14.5	-10.5	965.442
18.5	-10.5	968.469
22.5	-10.5	966.139
26.5	-10.5	970.024
30.5	-10.5	964.55
34.5	-10.5	967.029
-28	-10	967.173
-24	-10	965.514
-20	-10	964.254
-16	-10	967.424
-12	-10	966.007
-8.000000	-10	965.91
-4.000000	-10	964.383
0.000000	-10	966.777
4.000000	-10	967.922
8.000000	-10	966.253
12	-10	966.595
16	-10	967.062
20	-10	963.952
24	-10	965.616
28	-10	966.788
32	-10	965.737
36	-10	967.751
-26.5	-9.500000	966.407
-22.5	-9.500000	967.524
-18.5	-9.500000	965.719
-14.5	-9.500000	1100
-10.5	-9.500000	968.703
-6.500000	-9.500000	967.135
-2.500000	-9.500000	966.982
1.500000	-9.500000	976.72
5.500000	-9.500000	915.474
9.500000	-9.500000	964.241
13.5	-9.500000	968.651
17.5	-9.500000	967.148
21.5	-9.500000	968.045
25.5	-9.500000	952.873
29.5	-9.500000	965.923
33.5	-9.500000	964.488
37.5	-9.500000	970.09
-25	-9.000000	968.106
-21	-9.000000	967.307
-17	-9.000000	978.264
-13	-9.000000	965.965
-9.000000	-9.000000	970.343
-5.000000	-9.000000	968.975
-1.000000	-9.000000	965.098
3.000000	-9.000000	1004.2
7.000000	-9.000000	962.523
11	-9.000000	970.093
15	-9.000000	966.15
19	-9.000000	968.541
23	-9.000000	972.73
27	-9.000000	964.441
31	-9.000000	967.647
35	-9.000000	967.362
-27.5	-8.500000	965.833
-23.5	-8.500000	975.785
-19.5	-8.500000	965.993
-15.5	-8.500000	948.629
-11.5	-8.500000	967.589
-7.500000	-8.500000	1100
-3.500000	-8.500000	966.308
0.500000	-8.500000	900.446
4.500000	-8.500000	1100
8.500000	-8.500000	946.396
12.5	-8.500000	967.508
16.5	-8.500000	967.059
20.5	-8.500000	960.602
24.5	-8.500000	973.953
28.5	-8.500000	967.589
32.5	-8.500000	969.288
36.5	-8.500000	965.146
-26	-8.000000	966.049
-22	-8.000000	998.471
-18	-8.000000	978.922
-14	-8.000000	928.002
-10	-8.000000	971.179
-6.000000	-8.000000	964.846
-2.000000	-8.000000	965.756
2.000000	-8.000000	960.369
6.000000	-8.000000	904.725
10	-8.000000	963.23
14	-8.000000	965.432
18	-8.000000	967.423
22	-8.000000	965.645
26	-8.000000	1021.71
30	-8.000000	962.332
34	-8.000000	970.478
38	-8.000000	966.355
-24.5	-7.500000	966.818
-20.5	-7.500000	963.893
-16.5	-7.500000	961.961
-12.5	-7.500000	965.229
-8.500000	-7.500000	969.881
-4.500000	-7.500000	966.557
-0.500000	-7.500000	965.893
3.500000	-7.500000	960.82
7.500000	-7.500000	963.856
11.5	-7.500000	967.018
15.5	-7.500000	911.722
19.5	-7.500000	967.054
23.5	-7.500000	968.796
27.5	-7.500000	961.472
31.5	-7.500000	965.765
35.5	-7.500000	969.603
-27	-7.000000	967.949
-23	-7.000000	1100
-19	-7.000000	965.393
-15	-7.000000	963.588
-11	-7.000000	966.414
-7.000000	-7.000000	971.269
-3.000000	-7.000000	964.516
1.000000	-7.000000	1100
5.000000	-7.000000	944.28
9.000000	-7.000000	973.075
13	-7.000000	967.183
17	-7.000000	966.508
21	-7.000000	984.787
25	-7.000000	964.63
29	-7.000000	962.678
33	-7.000000	980.786
37	-7.000000	969.545
-25.5	-6.500000	966.921
-21.5	-6.500000	966.381
-17.5	-6.500000	968.665
-13.5	-6.500000	976.639
-9.500000	-6.500000	973.882
-5.500000	-6.500000	967.86
-1.500000	-6.500000	972.846
2.500000	-6.500000	966.79
6.500000	-6.500000	987.05
10.5	-6.500000	968.332
14.5	-6.500000	961.038
18.5	-6.500000	965.985
22.5	-6.500000	1100
26.5	-6.500000	961
30.5	-6.500000	971.302
34.5	-6.500000	972.829
-28	-6.000000	964.744
-24	-6.000000	969.848
-20	-6.000000	900
-16	-6.000000	1100
-12	-6.000000	954.451
-8.000000	-6.000000	976.788
-4.000000	-6.000000	967.412
0.000000	-6.000000	967.866
4.000000	-6.000000	960.185
8.000000	-6.000000	972.932
12	-6.000000	971.907
16	-6.000000	990.782
20	-6.000000	972.424
24	-6.000000	965.565
28	-6.000000	957.928
32	-6.000000	968.08
36	-6.000000	967.682
-26.5	-5.500000	969.447
-22.5	-5.500000	900
-18.5	-5.500000	900
-14.5	-5.500000	957.233
-10.5	-5.500000	968.391
-6.500000	-5.500000	984.947
-2.500000	-5.500000	966.66
1.500000	-5.500000	969.488
5.500000	-5.500000	1031.73
9.500000	-5.500000	964.378
13.5	-5.500000	966.715
17.5	-5.500000	972.582
21.5	-5.500000	973.131
25.5	-5.500000	972.247
29.5	-5.500000	968.228
33.5	-5.500000	969.381
37.5	-5.500000	964.507
-25	-5.000000	966.099
-21	-5.000000	987.222
-17	-5.000000	965.648
-13	-5.000000	966.745
-9.000000	-5.000000	967.769
-5.000000	-5.000000	966.928
-1.000000	-5.000000	979.172
3.000000	-5.000000	970.628
7.000000	-5.000000	965.681
11	-5.000000	965.431
15	-5.000000	1059.02
19	-5.000000	965.344
23	-5.000000	967.883
27	-5.000000	967.725
31	-5.000000	967.157
35	-5.000000	966.723
-27.5	-4.500000	971.643
-23.5	-4.500000	969.185
-19.5	-4.500000	953.937
-15.5	-4.500000	966.988
-11.5	-4.500000	966.284
-7.500000	-4.500000	968.941
-3.500000	-4.500000	965.516
0.500000	-4.500000	966.633
4.500000	-4.500000	970.36
8.500000	-4.500000	961.067
12.5	-4.500000	963.949
16.5	-4.500000	973.964
20.5	-4.500000	997.063
24.5	-4.500000	966.759
28.5	-4.500000	971.58
32.5	-4.500000	966.133
36.5	-4.500000	970.239
-26	-4.000000	965.776
-22	-4.000000	996.36
-18	-4.000000	966.327
-14	-4.000000	975.472
-10	-4.000000	966.677
-6.000000	-4.000000	965.814
-2.000000	-4.000000	968.022
2.000000	-4.000000	968.486
6.000000	-4.000000	967.132
10	-4.000000	967.957
14	-4.000000	952.838
18	-4.000000	924.208
22	-4.000000	982.051
26	-4.000000	1100
30	-4.000000	966.189
34	-4.000000	966.694
38	-4.000000	966.963
-24.5	-3.500000	965.198
-20.5	-3.500000	968.085
-16.5	-3.500000	1006.08
-12.5	-3.500000	968.074
-8.500000	-3.500000	966.339
-4.500000	-3.500000	964.537
-0.500000	-3.500000	970.107
3.500000	-3.500000	966.656
7.500000	-3.500000	965.719
11.5	-3.500000	1099.9
15.5	-3.500000	978.233
19.5	-3.500000	967.79
23.5	-3.500000	995.627
27.5	-3.500000	989.587
31.5	-3.500000	966.846
35.5	-3.500000	965.948
-27	-3.000000	967.594
-23	-3.000000	967.824
-19	-3.000000	1004.25
-15	-3.000000	985.746
-11	-3.000000	965.807
-7.000000	-3.000000	965.984
-3.000000	-3.000000	965.202
1.000000	-3.000000	970.689
5.000000	-3.000000	967.147
9.000000	-3.000000	968.4
13	-3.000000	1100
17	-3.000000	965.76
21	-3.000000	1100
25	-3.000000	963.071
29	-3.000000	966.638
33	-3.000000	966.153
37	-3.000000	966.789
-25.5	-2.500000	967.48
-21.5	-2.500000	968.782
-17.5	-2.500000	969.04
-13.5	-2.500000	970.186
-9.500000	-2.500000	965.327
-5.500000	-2.500000	968.058
-1.500000	-2.500000	971.474
2.500000	-2.500000	970.426
6.500000	-2.500000	969.253
10.5	-2.500000	966.145
14.5	-2.500000	991.964
18.5	-2.500000	968.502
22.5	-2.500000	978.046
26.5	-2.500000	911.747
30.5	-2.500000	967.543
34.5	-2.500000	966.913
-28	-2.000000	976.554
-24	-2.000000	967.036
-20	-2.000000	967.387
-16	-2.000000	988.271
-12	-2.000000	967.851
-8.000000	-2.000000	966.422
-4.000000	-2.000000	966.586
0.000000	-2.000000	968.515
4.000000	-2.000000	968.18
8.000000	-2.000000	966.68
12	-2.000000	1099.82
16	-2.000000	991.906
20	-2.000000	967.461
24	-2.000000	966.857
28	-2.000000	981.412
32	-2.000000	966.903
36	-2.000000	973.045
-26.5	-1.500000	965.454
-22.5	-1.500000	968.378
-18.5	-1.500000	967.311
-14.5	-1.500000	960.023
-10.5	-1.500000	967.177
-6.500000	-1.500000	966.147
-2.500000	-1.500000	965.647
1.500000	-1.500000	971.446
5.500000	-1.500000	964.032
9.500000	-1.500000	966.158
13.5	-1.500000	970.545
17.5	-1.500000	992.808
21.5	-1.500000	1063.02
25.5	-1.500000	1100
29.5	-1.500000	966.444
33.5	-1.500000	967.071
37.5	-1.500000	983.974
-25	-1.000000	967.35
-21	-1.000000	966.501
-17	-1.000000	992.466
-13	-1.000000	966.383
-9.000000	-1.000000	982.755
-5.000000	-1.000000	967.946
-1.000000	-1.000000	1100
3.000000	-1.000000	967.391
7.000000	-1.000000	963.975
11	-1.000000	1056.01
15	-1.000000	966.613
19	-1.000000	900
23	-1.000000	1011.59
27	-1.000000	967.063
31	-1.000000	969.357
35	-1.000000	966.883
-27.5	-0.500000	964.096
-23.5	-0.500000	969.478
-19.5	-0.500000	967.81
-15.5	-0.500000	978.143
-11.5	-0.500000	961.708
-7.500000	-0.500000	967.984
-3.500000	-0.500000	968.543
0.500000	-0.500000	968.561
4.500000	-0.500000	965.754
8.500000	-0.500000	963.088
12.5	-0.500000	972.808
16.5	-0.500000	972.925
20.5	-0.500000	949.489
24.5	-0.500000	1039.5
28.5	-0.500000	975.515
32.5	-0.500000	967.595
36.5	-0.500000	966.513
-26	0.000000	966.619
-22	0.000000	965.542
-18	0.000000	900
-14	0.000000	967.617
-10	0.000000	1002.13
-6.000000	0.000000	967.347
-2.000000	0.000000	965.111
2.000000	0.000000	966.922
6.000000	0.000000	961.88
10	0.000000	972.664
14	0.000000	900
18	0.000000	967.793
22	0.000000	927.02
26	0.000000	967.549
30	0.000000	982.197
34	0.000000	966.886
38	0.000000	970.482
-24.5	0.500000	969.092
-20.5	0.500000	968.037
-16.5	0.500000	969.954
-12.5	0.500000	969.867
-8.500000	0.500000	962.606
-4.500000	0.500000	967.686
-0.500000	0.500000	900
3.500000	0.500000	970.101
7.500000	0.500000	969.487
11.5	0.500000	1024.8
15.5	0.500000	1019.89
19.5	0.500000	965.995
23.5	0.500000	1014.59
27.5	0.500000	975.819
31.5	0.500000	966.608
35.5	0.500000	967.762
-27	1.000000	969.591
-23	1.000000	966.002
-19	1.000000	963.485
-15	1.000000	967.328
-11	1.000000	960.549
-7.000000	1.000000	967.72
-3.000000	1.000000	966.037
1.000000	1.000000	1100
5.000000	1.000000	960.08
9.000000	1.000000	975.757
13	1.000000	1100
17	1.000000	971.947
21	1.000000	968.469
25	1.000000	966.798
29	1.000000	973.854
33	1.000000	965.913
37	1.000000	965.988
-25.5	1.500000	1100
-21.5	1.500000	972.881
-17.5	1.500000	912.69
-13.5	1.500000	975.83
-9.500000	1.500000	950.14
-5.500000	1.500000	968.075
-1.500000	1.500000	975.605
2.500000	1.500000	967.507
6.500000	1.500000	966.598
10.5	1.500000	1003.05
14.5	1.500000	967.525
18.5	1.500000	968.079
22.5	1.500000	983.555
26.5	1.500000	954.209
30.5	1.500000	966.964
34.5	1.500000	966.533
-28	2.000000	968.102
-24	2.000000	1005.26
-20	2.000000	966.125
-16	2.000000	1003.14
-12	2.000000	965.54
-8.000000	2.000000	966.817
-4.000000	2.000000	965.088
0.000000	2.000000	970.332
4.000000	2.000000	963.67
8.000000	2.000000	972.085
12	2.000000	1069.21
16	2.000000	1100
20	2.000000	1015.83
24	2.000000	965.678
28	2.000000	1014.86
32	2.000000	966.721
36	2.000000	968.545
-26.5	2.500000	1008.63
-22.5	2.500000	945.942
-18.5	2.500000	982.024
-14.5	2.500000	1100
-10.5	2.500000	900
-6.500000	2.500000	967.65
-2.500000	2.500000	962.837
1.500000	2.500000	906.147
5.500000	2.500000	977.613
9.500000	2.500000	958.92
13.5	2.500000	967.283
17.5	2.500000	966.027
21.5	2.500000	1100
25.5	2.500000	967.082
29.5	2.500000	904.677
33.5	2.500000	966.314
37.5	2.500000	967.033
-25	3.000000	960.186
-21	3.000000	964.141
-17	3.000000	960.664
-13	3.000000	1100
-9.000000	3.000000	966.556
-5.000000	3.000000	967.534
-1.000000	3.000000	948.303
3.000000	3.000000	967.593
7.000000	3.000000	966.154
11	3.000000	966.842
15	3.000000	968.325
19	3.000000	969.048
23	3.000000	969.624
27	3.000000	970.592
31	3.000000	971.754
35	3.000000	965.895
-27.5	3.500000	966.865
-23.5	3.500000	986.17
-19.5	3.500000	958.698
-15.5	3.500000	951.79
-11.5	3.500000	1100
-7.500000	3.500000	966.307
-3.500000	3.500000	959.293
0.500000	3.500000	1100
4.500000	3.500000	931.998
8.500000	3.500000	969.89
12.5	3.500000	966.936
16.5	3.500000	968.032
20.5	3.500000	968.597
24.5	3.500000	966.819
28.5	3.500000	955.239
32.5	3.500000	966.362
36.5	3.500000	969.154
-26	4.000000	900
-22	4.000000	966.956
-18	4.000000	961.492
-14	4.000000	967.894
-10	4.000000	971.541
-6.000000	4.000000	969.821
-2.000000	4.000000	930.797
2.000000	4.000000	965.257
6.000000	4.000000	967.249
10	4.000000	966.624
14	4.000000	962.616
18	4.000000	986.898
22	4.000000	1071.41
26	4.000000	1100
30	4.000000	967.797
34	4.000000	968.388
38	4.000000	964.615
-24.5	4.500000	967.833
-20.5	4.500000	967.033
-16.5	4.500000	964.379
-12.5	4.500000	966.534
-8.500000	4.500000	1100
-4.500000	4.500000	981.124
-0.500000	4.500000	969.036
3.500000	4.500000	984.433
7.500000	4.500000	900
11.5	4.500000	970.306
15.5	4.500000	968.083
19.5	4.500000	968.908
23.5	4.500000	947.001
27.5	4.500000	966.377
31.5	4.500000	966.137
35.5	4.500000	965.649
-27	5.000000	1100
-23	5.000000	966.114
-19	5.000000	968.724
-15	5.000000	964.73
-11	5.000000	969.412
-7.000000	5.000000	937.124
-3.000000	5.000000	977.256
1.000000	5.000000	953.953
5.000000	5.000000	966.183
9.000000	5.000000	915.382
13	5.000000	962.577
17	5.000000	976.258
21	5.000000	960.515
25	5.000000	1100
29	5.000000	1099.87
33	5.000000	967.833
37	5.000000	966.189
-25.5	5.500000	967.094
-21.5	5.500000	968.874
-17.5	5.500000	969.118
-13.5	5.500000	966.04
-9.500000	5.500000	967.018
-5.500000	5.500000	966.377
-1.500000	5.500000	968.593
2.500000	5.500000	966.611
6.500000	5.500000	968.475
10.5	5.500000	970.972
14.5	5.500000	975.117
18.5	5.500000	1100
22.5	5.500000	968.376
26.5	5.500000	1100
30.5	5.500000	966.292
34.5	5.500000	972.548
-28	6.000000	991.023
-24	6.000000	968.282
-20	6.000000	966.256
-16	6.000000	956.855
-12	6.000000	954.602
-8.000000	6.000000	967.354
-4.000000	6.000000	966.098
0.000000	6.000000	969.527
4.000000	6.000000	968.391
8.000000	6.000000	964.72
12	6.000000	974.548
16	6.000000	965.657
20	6.000000	953.429
24	6.000000	966.313
28	6.000000	1100
32	6.000000	965.78
36	6.000000	969.043
-26.5	6.500000	968.331
-22.5	6.500000	969.339
-18.5	6.500000	970.474
-14.5	6.500000	966.29
-10.5	6.500000	968.855
-6.500000	6.500000	965.9
-2.500000	6.500000	976.759
1.500000	6.500000	968.277
5.500000	6.500000	967.718
9.500000	6.500000	965.33
13.5	6.500000	969.816
17.5	6.500000	1059.15
21.5	6.500000	900
25.5	6.500000	949.822
29.5	6.500000	966.784
33.5	6.500000	1052.38
37.5	6.500000	978.436
-25	7.000000	968.554
-21	7.000000	969.703
-17	7.000000	963.646
-13	7.000000	900
-9.000000	7.000000	963.445
-5.000000	7.000000	966.154
-1.000000	7.000000	967.248
3.000000	7.000000	966.999
7.000000	7.000000	967.506
11	7.000000	1009.87
15	7.000000	966.818
19	7.000000	974.246
23	7.000000	966.456
27	7.000000	932.285
31	7.000000	1090.81
35	7.000000	966.163
-27.5	7.500000	966.986
-23.5	7.500000	966.705
-19.5	7.500000	960.391
-15.5	7.500000	1100
-11.5	7.500000	965.681
-7.500000	7.500000	964.746
-3.500000	7.500000	900
0.500000	7.500000	969.725
4.500000	7.500000	966.765
8.500000	7.500000	967.668
12.5	7.500000	1080.03
16.5	7.500000	968.247
20.5	7.500000	967.843
24.5	7.500000	970.359
28.5	7.500000	1100
32.5	7.500000	978.601
36.5	7.500000	967.359
-26	8.000000	967.599
-22	8.000000	962.497
-18	8.000000	900.704
-14	8.000000	970.723
-10	8.000000	970.56
-6.000000	8.000000	900.742
-2.000000	8.000000	962.965
2.000000	8.000000	960.685
6.000000	8.000000	1099.99
10	8.000000	900
14	8.000000	963.275
18	8.000000	966.147
22	8.000000	991.865
26	8.000000	965.592
30	8.000000	1010.47
34	8.000000	966.044
38	8.000000	964.503
-24.5	8.500000	966.453
-20.5	8.500000	963.103
-16.5	8.500000	966.218
-12.5	8.500000	982.99
-8.500000	8.500000	965.324
-4.500000	8.500000	937.111
-0.500000	8.500000	979.965
3.500000	8.500000	955.79
7.500000	8.500000	965.541
11.5	8.500000	970.51
15.5	8.500000	967.822
19.5	8.500000	968.766
23.5	8.500000	967.905
27.5	8.500000	900
31.5	8.500000	967.951
35.5	8.500000	1100
-27	9.000000	966.889
-23	9.000000	967.803
-19	9.000000	965.428
-15	9.000000	902.966
-11	9.000000	966.344
-7.000000	9.000000	967.967
-3.000000	9.000000	969.642
1.000000	9.000000	964.649
5.000000	9.000000	973.325
9.000000	9.000000	910.435
13	9.000000	968.63
17	9.000000	967.83
21	9.000000	967.53
25	9.000000	1100
29	9.000000	1100
33	9.000000	958.586
37	9.000000	994.078
-25.5	9.500000	966.322
-21.5	9.500000	968.643
-17.5	9.500000	969.411
-13.5	9.500000	966.526
-9.500000	9.500000	919.689
-5.500000	9.500000	964.165
-1.500000	9.500000	967.962
2.500000	9.500000	971.789
6.500000	9.500000	967.594
10.5	9.500000	924.391
14.5	9.500000	973.623
18.5	9.500000	1001.76
22.5	9.500000	942.288
26.5	9.500000	1075.68
30.5	9.500000	970.583
34.5	9.500000	968.076
-28	10	967.136
-24	10	969.288
-20	10	963.302
-16	10	970.831
-12	10	981.903
-8.000000	10	965.079
-4.000000	10	967.497
0.000000	10	1100
4.000000	10	967.433
8.000000	10	973.25
12	10	900
16	10	1100
20	10	945.414
24	10	967.952
28	10	1100
32	10	974.135
36	10	960.872
-26.5	10.5	967.469
-22.5	10.5	969.686
-18.5	10.5	967.234
-14.5	10.5	966.153
-10.5	10.5	977.957
-6.500000	10.5	1100
-2.500000	10.5	973.364
1.500000	10.5	952.919
5.500000	10.5	966.589
9.500000	10.5	997.326
13.5	10.5	970.401
17.5	10.5	973.3
21.5	10.5	965.56
25.5	10.5	966.621
29.5	10.5	939.891
33.5	10.5	963.841
37.5	10.5	1100
-25	11	969.223
-21	11	967.962
-17	11	972.113
-13	11	964.047
-9.000000	11	967.14
-5.000000	11	901.466
-1.000000	11	970.792
3.000000	11	967.993
7.000000	11	968.8
11	11	1018.01
15	11	971.617
19	11	950.363
23	11	965.215
27	11	969.484
31	11	994.035
35	11	967.089
-27.5	11.5	970.034
-23.5	11.5	970.142
-19.5	11.5	966.026
-15.5	11.5	968.801
-11.5	11.5	971.056
-7.500000	11.5	965.22
-3.500000	11.5	968.708
0.500000	11.5	968.53
4.500000	11.5	967.316
8.500000	11.5	970.284
12.5	11.5	962.35
16.5	11.5	965.788
20.5	11.5	965.976
24.5	11.5	951.111
28.5	11.5	979.566
32.5	11.5	973.533
36.5	11.5	938.668
-26	12	969.394
-22	12	964.74
-18	12	967.259
-14	12	964.864
-10	12	965.665
-6.000000	12	959.416
-2.000000	12	976.194
2.000000	12	966.226
6.000000	12	966.313
10	12	978.063
14	12	951.133
18	12	966.714
22	12	950.074
26	12	951.802
30	12	964.965
34	12	973.356
38	12	904.146
-24.5	12.5	968.856
-20.5	12.5	967.762
-16.5	12.5	966.83
-12.5	12.5	969.346
-8.500000	12.5	951.213
-4.500000	12.5	968.877
-0.500000	12.5	968.623
3.500000	12.5	966.716
7.500000	12.5	964.701
11.5	12.5	970.525
15.5	12.5	1100
19.5	12.5	934.476
23.5	12.5	900
27.5	12.5	941.638
31.5	12.5	968.473
35.5	12.5	977.065
-27	13	967.155
-23	13	966.543
-19	13	967.009
-15	13	966.652
-11	13	966.521
-7.000000	13	900
-3.000000	13	1100
1.000000	13	971.639
5.000000	13	965.56
9.000000	13	962.634
13	13	966.644
17	13	970.217
21	13	970.797
25	13	968.533
29	13	968.577
33	13	1044.48
37	13	976.463
-25.5	13.5	967.364
-21.5	13.5	968.647
-17.5	13.5	968.394
-13.5	13.5	965.81
-9.500000	13.5	954.353
-5.500000	13.5	964.898
-1.500000	13.5	972.369
2.500000	13.5	966.081
6.500000	13.5	964.898
10.5	13.5	966.856
14.5	13.5	974.59
18.5	13.5	941.791
22.5	13.5	972.707
26.5	13.5	960.304
30.5	13.5	955.901
34.5	13.5	965.48
-28	14	967.411
-24	14	967.483
-20	14	968.178
-16	14	967.913
-12	14	967.021
-8.000000	14	966.135
-4.000000	14	965.477
0.000000	14	971.145
4.000000	14	968.099
8.000000	14	966.346
12	14	963.141
16	14	998.364
20	14	963.537
24	14	1100
28	14	1100
32	14	953.294
36	14	1012.24
-26.5	14.5	968.088
-22.5	14.5	969.277
-18.5	14.5	967.116
-14.5	14.5	965.864
-10.5	14.5	969.445
-6.500000	14.5	968.375
-2.500000	14.5	949.886
1.500000	14.5	965.627
5.500000	14.5	967.816
9.500000	14.5	967.344
13.5	14.5	967.315
17.5	14.5	1100
21.5	14.5	955.706
25.5	14.5	1016.82
29.5	14.5	967.153
33.5	14.5	940.44
37.5	14.5	968.519
-25	15	965.953
-21	15	968.202
-17	15	965.589
-13	15	966.145
-9.000000	15	966.344
-5.000000	15	965.216
-1.000000	15	973.554
3.000000	15	967.609
7.000000	15	968.134
11	15	968.401
15	15	948.501
19	15	1100
23	15	972.777
27	15	966.857
31	15	966.783
35	15	905.793
-27.5	15.5	965.619
-23.5	15.5	966.363
-19.5	15.5	966.334
-15.5	15.5	966.434
-11.5	15.5	965.483
-7.500000	15.5	965.307
-3.500000	15.5	966.698
0.500000	15.5	967.735
4.500000	15.5	967.026
8.500000	15.5	966.212
12.5	15.5	961.831
16.5	15.5	1064.9
20.5	15.5	983.996
24.5	15.5	982.145
28.5	15.5	965.842
32.5	15.5	968.717
36.5	15.5	967.613
-26	16	967.147
-22	16	967.794
-18	16	966.368
-14	16	967.386
-10	16	969.955
-6.000000	16	967.639
-2.000000	16	965.964
2.000000	16	966.943
6.000000	16	967.021
10	16	967.846
14	16	949.905
18	16	1100
22	16	961.271
26	16	969.171
30	16	979.446
34	16	1001.14
38	16	967.979
-24.5	16.5	967.999
-20.5	16.5	968.272
-16.5	16.5	966.768
-12.5	16.5	965.894
-8.500000	16.5	973.34
-4.500000	16.5	967.703
-0.500000	16.5	966.777
3.500000	16.5	961.793
7.500000	16.5	966.494
11.5	16.5	966.132
15.5	16.5	964.927
19.5	16.5	970.514
23.5	16.5	961.772
27.5	16.5	1100
31.5	16.5	965.717
35.5	16.5	969.838
-27	17	966.389
-23	17	967.375
-19	17	967.809
-15	17	968.462
-11	17	970.891
-7.000000	17	964.468
-3.000000	17	966.167
1.000000	17	966.515
5.000000	17	969.771
9.000000	17	968.239
13	17	970.218
17	17	947.651
21	17	915.761
25	17	966.049
29	17	972.577
33	17	969.903
37	17	968.565
-25.5	17.5	967.406
-21.5	17.5	966.928
-17.5	17.5	967.982
-13.5	17.5	966.525
-9.500000	17.5	974.75
-5.500000	17.5	966.658
-1.500000	17.5	966.191
2.500000	17.5	969.221
6.500000	17.5	967.17
10.5	17.5	967.029
14.5	17.5	975.313
18.5	17.5	960.34
22.5	17.5	951.534
26.5	17.5	966.537
30.5	17.5	966.045
34.5	17.5	968.724
-28	18	967.451
-24	18	967.435
-20	18	967.392
-16	18	967.059
-12	18	972.424
-8.000000	18	968.343
-4.000000	18	966.842
0.000000	18	966.3
4.000000	18	968.053
8.000000	18	966.878
12	18	964.845
16	18	966.377
20	18	984.023
24	18	970.005
28	18	965.994
32	18	967.596
36	18	967.905
-26.5	18.5	967.249
-22.5	18.5	969.188
-18.5	18.5	967.852
-14.5	18.5	965.416
-10.5	18.5	966.996
-6.500000	18.5	967.262
-2.500000	18.5	965.481
1.500000	18.5	971.13
5.500000	18.5	967.639
9.500000	18.5	968.412
13.5	18.5	983.14
17.5	18.5	987.907
21.5	18.5	1100
25.5	18.5	969.599
29.5	18.5	965.403
33.5	18.5	966.733
37.5	18.5	969.826
-25	19	967.116
-21	19	965.515
-17	19	966.248
-13	19	968.705
-9.000000	19	965.407
-5.000000	19	967.114
-1.000000	19	966.129
3.000000	19	965.138
7.000000	19	965.872
11	19	965.421
15	19	982.474
19	19	973.587
23	19	990.18
27	19	967.198
31	19	966.335
35	19	968.117
-27.5	19.5	968.253
-23.5	19.5	965.716
-19.5	19.5	967.988
-15.5	19.5	968.742
-11.5	19.5	967.334
-7.500000	19.5	967.333
-3.500000	19.5	967.091
0.500000	19.5	967.391
4.500000	19.5	967.199
8.500000	19.5	968.178
12.5	19.5	1100
16.5	19.5	979.394
20.5	19.5	970.15
24.5	19.5	966.598
28.5	19.5	967.104
32.5	19.5	982.979
36.5	19.5	967.524
-26	20	966.274
-22	20	965.699
-18	20	966.351
-14	20	968.839
-10	20	960.362
-6.000000	20	967.632
-2.000000	20	972.28
2.000000	20	969.548
6.000000	20	964.454
10	20	968.671
14	20	967.798
18	20	965.13
22	20	1099.92
26	20	964.724
30	20	965.576
34	20	970.821
38	20	965.839