File: data/raw_data/uvvis/20171130_GrNH2_azodye/20171130_20min.csv
20171130_20min.csv;;Kemi1\Kemi01;30-11-2017 15:49:09;GENESYS 10S UV-Vis;2L9T161212;4.006
nm;A
200;3.3274
201;3.3861
202;3.4464
203;3.5418
204;3.5416
205;3.5904
206;3.6101
207;3.6092
208;3.6057
209;3.6297
210;3.6242
211;3.6302
212;3.6371
213;3.644
214;3.6849
215;3.6531
216;3.6818
217;3.6449
218;3.6728
219;3.6963
220;3.6653
221;3.7166
222;3.7342
223;3.7272
224;3.8749
225;3.8134
226;3.8265
227;3.9111
228;3.9377
229;3.9647
230;3.958
231;3.9159
232;3.8989
233;3.8424
234;3.842
235;3.862
236;3.8657
237;3.8609
238;3.8332
239;3.8393
240;3.8308
241;3.8829
242;3.9069
243;3.9181
244;3.882
245;3.8525
246;3.8683
247;3.9366
248;3.9065
249;3.8968
250;3.8334
251;3.8215
252;3.8542
253;3.7719
254;3.7673
255;3.7543
256;3.724
257;3.7261
258;3.7556
259;3.7737
260;3.8069
261;3.801
262;3.7718
263;3.7147
264;3.7061
265;3.7172
266;3.6755
267;3.6627
268;3.6579
269;3.6525
270;3.6513
271;3.6667
272;3.7006
273;3.7451
274;3.6519
275;3.6475
276;3.6523
277;3.6452
278;3.6547
279;3.6443
280;3.6551
281;3.6534
282;3.6687
283;3.674
284;3.6752
285;3.6735
286;3.6817
287;3.6701
288;3.7009
289;3.6573
290;3.6774
291;3.6977
292;3.6826
293;3.6855
294;3.7025
295;3.7237
296;3.7241
297;3.7275
298;3.6738
299;3.5499
300;3.3163
301;3.0645
302;2.8339
303;2.645
304;2.5043
305;2.407
306;2.3474
307;2.3117
308;2.2984
309;2.3037
310;2.323
311;2.3591
312;2.4004
313;2.4566
314;2.528
315;2.5968
316;2.6665
317;2.751
318;2.8357
319;2.9129
320;2.9886
321;3.0539
322;3.1479
323;3.226
324;3.2953
325;3.3323
326;3.3733
327;3.4003
328;3.4293
329;3.4471
330;3.4628
331;3.4596
332;3.5142
333;3.4996
334;3.5347
335;3.5113
336;3.4931
337;3.5146
338;3.5089
339;3.5174
340;3.4918
341;3.4779
342;3.4742
343;3.5178
344;3.5286
345;3.5181
346;3.5399
347;3.4822
348;3.4825
349;3.4927
350;3.4522
351;3.4495
352;3.4416
353;3.4605
354;3.4245
355;3.4274
356;3.3961
357;3.3743
358;3.3213
359;3.2005
360;3.0835
361;2.944
362;2.803
363;2.6349
364;2.4311
365;2.2528
366;2.0929
367;1.9375
368;1.7951
369;1.6567
370;1.5282
371;1.4175
372;1.3245
373;1.2312
374;1.1517
375;1.0865
376;1.0282
377;0.9808
378;0.9462
379;0.9128
380;0.8818
381;0.8576
382;0.8389
383;0.8237
384;0.8135
385;0.8061
386;0.8015
387;0.7991
388;0.7995
389;0.8017
390;0.8052
391;0.8103
392;0.8161
393;0.8233
394;0.8319
395;0.8396
396;0.8497
397;0.8603
398;0.8704
399;0.8815
400;0.8928
401;0.9032
402;0.9142
403;0.9256
404;0.9365
405;0.9471
406;0.9576
407;0.9687
408;0.9797
409;0.991
410;1.0011
411;1.0103
412;1.0192
413;1.0284
414;1.037
415;1.0455
416;1.0537
417;1.061
418;1.0678
419;1.0746
420;1.0805
421;1.0855
422;1.0901
423;1.0943
424;1.0976
425;1.1005
426;1.1031
427;1.105
428;1.1066
429;1.1076
430;1.1078
431;1.1078
432;1.1076
433;1.1067
434;1.1057
435;1.1043
436;1.1025
437;1.1001
438;1.0977
439;1.095
440;1.0919
441;1.0888
442;1.0853
443;1.0812
444;1.0772
445;1.0731
446;1.0687
447;1.0648
448;1.0603
449;1.056
450;1.0517
451;1.0468
452;1.0424
453;1.0382
454;1.0337
455;1.0291
456;1.0254
457;1.0214
458;1.0175
459;1.014
460;1.0112
461;1.0084
462;1.0055
463;1.0033
464;1.0013
465;0.9996
466;0.9983
467;0.9977
468;0.9972
469;0.9971
470;0.9973
471;0.9977
472;0.9989
473;1
474;1.0017
475;1.0034
476;1.0053
477;1.0082
478;1.0105
479;1.013
480;1.0157
481;1.0185
482;1.0219
483;1.0242
484;1.0266
485;1.0291
486;1.0324
487;1.0354
488;1.0375
489;1.04
490;1.0424
491;1.0447
492;1.0462
493;1.0475
494;1.0486
495;1.05
496;1.0501
497;1.0509
498;1.0508
499;1.0505
500;1.05
501;1.0487
502;1.0472
503;1.0457
504;1.0429
505;1.041
506;1.0382
507;1.0349
508;1.0306
509;1.027
510;1.0224
511;1.0171
512;1.0115
513;1.0058
514;0.9996
515;0.9929
516;0.9861
517;0.9783
518;0.9711
519;0.9635
520;0.9557
521;0.9463
522;0.9366
523;0.9269
524;0.9168
525;0.9062
526;0.8956
527;0.8852
528;0.8735
529;0.8626
530;0.8526
531;0.8399
532;0.8272
533;0.8134
534;0.8017
535;0.7894
536;0.7754
537;0.7615
538;0.7494
539;0.7353
540;0.7205
541;0.7058
542;0.6926
543;0.6792
544;0.6653
545;0.6501
546;0.6349
547;0.6201
548;0.6062
549;0.5921
550;0.5775
551;0.5629
552;0.5489
553;0.5334
554;0.5203
555;0.5069
556;0.4919
557;0.4772
558;0.4633
559;0.4497
560;0.4359
561;0.4231
562;0.4105
563;0.3971
564;0.3838
565;0.3713
566;0.359
567;0.3466
568;0.3352
569;0.3235
570;0.3113
571;0.2999
572;0.2896
573;0.2799
574;0.2697
575;0.2593
576;0.2507
577;0.2419
578;0.2326
579;0.2237
580;0.2155
581;0.2069
582;0.1989
583;0.1916
584;0.1845
585;0.1775
586;0.1702
587;0.1637
588;0.1575
589;0.1512
590;0.1451
591;0.1397
592;0.1341
593;0.1282
594;0.124
595;0.1193
596;0.1143
597;0.1103
598;0.106
599;0.1023
600;0.0982
601;0.0944
602;0.0914
603;0.0873
604;0.0845
605;0.0817
606;0.0785
607;0.0758
608;0.0726
609;0.0705
610;0.0682
611;0.0657
612;0.0635
613;0.0614
614;0.0591
615;0.0579
616;0.0564
617;0.0541
618;0.0523
619;0.0511
620;0.049
621;0.0477
622;0.046
623;0.0446
624;0.0432
625;0.0418
626;0.0409
627;0.0398
628;0.0391
629;0.0377
630;0.0368
631;0.0361
632;0.0355
633;0.0343
634;0.0333
635;0.0325
636;0.0322
637;0.0312
638;0.0303
639;0.0296
640;0.0293
641;0.0281
642;0.0282
643;0.0273
644;0.0268
645;0.0262
646;0.0255
647;0.025
648;0.0247
649;0.0243
650;0.0238
651;0.0233
652;0.0231
653;0.0229
654;0.0223
655;0.0218
656;0.0216
657;0.0209
658;0.0208
659;0.0202
660;0.0202
661;0.0197
662;0.0195
663;0.019
664;0.0187
665;0.019
666;0.0187
667;0.0179
668;0.0185
669;0.0176
670;0.0176
671;0.017
672;0.0166
673;0.0168
674;0.0166
675;0.0165
676;0.0163
677;0.016
678;0.0162
679;0.0153
680;0.0148
681;0.0152
682;0.0154
683;0.015
684;0.0148
685;0.0149
686;0.0147
687;0.0143
688;0.014
689;0.014
690;0.0133
691;0.0139
692;0.0139
693;0.0137
694;0.0134
695;0.0129
696;0.0127
697;0.0128
698;0.0126
699;0.0119
700;0.012
701;0.012
702;0.0116
703;0.0123
704;0.0124
705;0.0118
706;0.0111
707;0.0117
708;0.0114
709;0.0114
710;0.0119
711;0.0114
712;0.0112
713;0.0105
714;0.0112
715;0.0109
716;0.0108
717;0.0102
718;0.0104
719;0.0107
720;0.0104
721;0.0098
722;0.01
723;0.0099
724;0.01
725;0.0094
726;0.0098
727;0.0093
728;0.0098
729;0.0092
730;0.0103
731;0.0094
732;0.0095
733;0.0093
734;0.0098
735;0.0088
736;0.0092
737;0.0096
738;0.0087
739;0.0089
740;0.0094
741;0.009
742;0.009
743;0.0096
744;0.0089
745;0.0085
746;0.0087
747;0.0085
748;0.0087
749;0.0083
750;0.0078
751;0.0087
752;0.008
753;0.0083
754;0.0087
755;0.0081
756;0.0084
757;0.0087
758;0.0087
759;0.0085
760;0.0075
761;0.0079
762;0.0081
763;0.0079
764;0.0081
765;0.0075
766;0.0074
767;0.008
768;0.0075
769;0.008
770;0.0074
771;0.0075
772;0.0072
773;0.0077
774;0.0084
775;0.008
776;0.0071
777;0.007
778;0.0077
779;0.008
780;0.0076
781;0.0071
782;0.0066
783;0.0072
784;0.0071
785;0.0065
786;0.007
787;0.0064
788;0.0071
789;0.0068
790;0.0069
791;0.0068
792;0.0062
793;0.0076
794;0.0064
795;0.0073
796;0.006
797;0.0066
798;0.0066
799;0.0066
800;0.0058