File: data/raw_data/uvvis/20170915 Azodye/Azo-dye 1-0.csv
Azo-dye.csv;;Kemi1\Kemi01;15-09-2017 11:48:50;GENESYS 10S UV-Vis;2L9T161212;4.006
nm;A
200;2.9996
201;3.0316
202;3.1054
203;3.1575
204;3.1665
205;3.1979
206;3.2074
207;3.204
208;3.182
209;3.1725
210;3.2074
211;3.1963
212;3.1969
213;3.1987
214;3.2225
215;3.228
216;3.2196
217;3.2307
218;3.2379
219;3.2528
220;3.2513
221;3.244
222;3.257
223;3.2673
224;3.2935
225;3.2656
226;3.2835
227;3.2873
228;3.3139
229;3.3302
230;3.316
231;3.2922
232;3.267
233;3.2476
234;3.2463
235;3.2372
236;3.2373
237;3.2257
238;3.2236
239;3.2126
240;3.208
241;3.2234
242;3.2353
243;3.2371
244;3.225
245;3.2088
246;3.2071
247;3.2305
248;3.2316
249;3.2217
250;3.2005
251;3.1918
252;3.2061
253;3.2228
254;3.1981
255;3.1908
256;3.1896
257;3.2054
258;3.229
259;3.2438
260;3.2632
261;3.2636
262;3.2863
263;3.2164
264;3.2081
265;3.2028
266;3.1911
267;3.189
268;3.1831
269;3.1644
270;3.157
271;3.1808
272;3.1927
273;3.2018
274;3.1754
275;3.1602
276;3.169
277;3.1695
278;3.1615
279;3.1552
280;3.155
281;3.1555
282;3.1721
283;3.1785
284;3.1861
285;3.1972
286;3.2174
287;3.2295
288;3.249
289;3.224
290;3.2332
291;3.2396
292;3.2359
293;3.2365
294;3.257
295;3.2925
296;3.3288
297;3.3644
298;3.406
299;3.4372
300;3.4681
301;3.5331
302;3.5099
303;3.5045
304;3.4985
305;3.5111
306;3.5067
307;3.4806
308;3.5198
309;3.459
310;3.4445
311;3.423
312;3.3971
313;3.3656
314;3.3371
315;3.3298
316;3.2878
317;3.2344
318;3.2139
319;3.1999
320;3.1635
321;3.1338
322;3.1213
323;3.1308
324;3.132
325;3.0993
326;3.0794
327;3.0588
328;3.0157
329;3.0139
330;3.0019
331;2.9879
332;2.9893
333;3.0014
334;2.9872
335;2.9725
336;2.9549
337;2.9492
338;2.9425
339;2.9343
340;2.9262
341;2.916
342;2.9068
343;2.9199
344;2.9313
345;2.9387
346;2.9212
347;2.8941
348;2.8794
349;2.8739
350;2.8793
351;2.8599
352;2.8666
353;2.8642
354;2.8653
355;2.8611
356;2.8461
357;2.8323
358;2.7898
359;2.7138
360;2.6235
361;2.5074
362;2.3772
363;2.2112
364;2.0092
365;1.8276
366;1.6659
367;1.5036
368;1.3554
369;1.2114
370;1.0768
371;0.9632
372;0.8644
373;0.7671
374;0.6839
375;0.616
376;0.5538
377;0.5029
378;0.4648
379;0.4274
380;0.3892
381;0.3593
382;0.3344
383;0.312
384;0.2929
385;0.2768
386;0.2621
387;0.2498
388;0.2397
389;0.2307
390;0.2224
391;0.2149
392;0.2091
393;0.2036
394;0.1986
395;0.1949
396;0.1912
397;0.1881
398;0.1854
399;0.1835
400;0.1817
401;0.1804
402;0.1789
403;0.1779
404;0.1769
405;0.1762
406;0.1756
407;0.1752
408;0.1748
409;0.1745
410;0.1743
411;0.174
412;0.1738
413;0.1738
414;0.1737
415;0.1737
416;0.1735
417;0.1735
418;0.1734
419;0.1731
420;0.1727
421;0.1725
422;0.1721
423;0.1717
424;0.1711
425;0.1703
426;0.1695
427;0.1688
428;0.1676
429;0.1666
430;0.165
431;0.1635
432;0.1619
433;0.1605
434;0.1589
435;0.1573
436;0.1555
437;0.1538
438;0.1521
439;0.1504
440;0.1488
441;0.1472
442;0.1454
443;0.1437
444;0.142
445;0.1402
446;0.1387
447;0.1372
448;0.1355
449;0.1338
450;0.1322
451;0.1303
452;0.1286
453;0.1269
454;0.1251
455;0.1232
456;0.1212
457;0.1196
458;0.1178
459;0.1158
460;0.1147
461;0.1131
462;0.1112
463;0.1096
464;0.1084
465;0.1068
466;0.1057
467;0.1045
468;0.1034
469;0.1025
470;0.102
471;0.1012
472;0.1007
473;0.1003
474;0.0998
475;0.0994
476;0.0989
477;0.0987
478;0.0989
479;0.0989
480;0.0991
481;0.0991
482;0.0991
483;0.0989
484;0.0991
485;0.0994
486;0.0997
487;0.0997
488;0.0999
489;0.0999
490;0.1003
491;0.1
492;0.1004
493;0.1003
494;0.1004
495;0.1002
496;0.1004
497;0.1004
498;0.1002
499;0.1003
500;0.1001
501;0.0998
502;0.0994
503;0.099
504;0.0989
505;0.0985
506;0.0986
507;0.0977
508;0.0974
509;0.0971
510;0.0965
511;0.096
512;0.0952
513;0.0949
514;0.0941
515;0.0938
516;0.093
517;0.0924
518;0.0917
519;0.091
520;0.0905
521;0.0893
522;0.0888
523;0.0879
524;0.0868
525;0.0858
526;0.0849
527;0.0841
528;0.0828
529;0.0818
530;0.0811
531;0.08
532;0.0786
533;0.0772
534;0.076
535;0.0753
536;0.0735
537;0.072
538;0.0709
539;0.0696
540;0.068
541;0.0665
542;0.0651
543;0.0637
544;0.0618
545;0.0606
546;0.0592
547;0.0575
548;0.0559
549;0.055
550;0.0528
551;0.0519
552;0.0497
553;0.0484
554;0.0471
555;0.0457
556;0.0442
557;0.043
558;0.0413
559;0.0399
560;0.0389
561;0.0377
562;0.0367
563;0.0352
564;0.0347
565;0.0332
566;0.0323
567;0.0314
568;0.03
569;0.0289
570;0.0281
571;0.0273
572;0.0263
573;0.0256
574;0.0247
575;0.0238
576;0.0228
577;0.0222
578;0.0218
579;0.0209
580;0.0208
581;0.0199
582;0.0189
583;0.0183
584;0.0176
585;0.0175
586;0.0161
587;0.0166
588;0.0158
589;0.0152
590;0.0148
591;0.0142
592;0.014
593;0.014
594;0.0128
595;0.0128
596;0.0123
597;0.012
598;0.0117
599;0.0115
600;0.0107
601;0.0107
602;0.01
603;0.0102
604;0.0096
605;0.0096
606;0.0092
607;0.0096
608;0.0085
609;0.0089
610;0.0085
611;0.0081
612;0.0079
613;0.0082
614;0.0076
615;0.0073
616;0.0072
617;0.0071
618;0.0069
619;0.0068
620;0.0065
621;0.0063
622;0.0065
623;0.0066
624;0.0066
625;0.0055
626;0.0056
627;0.0059
628;0.0057
629;0.0052
630;0.0062
631;0.0053
632;0.0056
633;0.0051
634;0.0052
635;0.0049
636;0.0052
637;0.0049
638;0.0051
639;0.0045
640;0.0047
641;0.0048
642;0.0043
643;0.0051
644;0.0043
645;0.0045
646;0.0041
647;0.0044
648;0.0044
649;0.0041
650;0.0038
651;0.0041
652;0.0036
653;0.0039
654;0.0044
655;0.0044
656;0.0039
657;0.0036
658;0.0039
659;0.0038
660;0.0039
661;0.0034
662;0.0037
663;0.0031
664;0.0036
665;0.0039
666;0.0034
667;0.0036
668;0.0037
669;0.0028
670;0.0035
671;0.0032
672;0.0032
673;0.0031
674;0.0034
675;0.0036
676;0.0039
677;0.0031
678;0.0034
679;0.003
680;0.0033
681;0.0032
682;0.0032
683;0.0032
684;0.0035
685;0.0036
686;0.0031
687;0.0029
688;0.003
689;0.0029
690;0.0026
691;0.0028
692;0.0031
693;0.0031
694;0.0033
695;0.0024
696;0.0033
697;0.0032
698;0.0033
699;0.0029
700;0.0029
701;0.0031
702;0.003
703;0.0028
704;0.0029
705;0.0025
706;0.0022
707;0.002
708;0.003
709;0.0027
710;0.0029
711;0.003
712;0.0026
713;0.0025
714;0.0025
715;0.0022
716;0.0027
717;0.0029
718;0.003
719;0.0029
720;0.0022
721;0.0023
722;0.0028
723;0.0024
724;0.0023
725;0.0029
726;0.003
727;0.0025
728;0.0026
729;0.0027
730;0.0029
731;0.0027
732;0.0027
733;0.0024
734;0.0025
735;0.003
736;0.0027
737;0.003
738;0.0025
739;0.0023
740;0.0025
741;0.0028
742;0.0026
743;0.0027
744;0.0024
745;0.003
746;0.0019
747;0.0035
748;0.0025
749;0.002
750;0.0028
751;0.0025
752;0.0024
753;0.0028
754;0.0026
755;0.0022
756;0.0027
757;0.0025
758;0.0025
759;0.0027
760;0.003
761;0.0024
762;0.0019
763;0.002
764;0.0019
765;0.0024
766;0.0018
767;0.0024
768;0.0024
769;0.0024
770;0.0018
771;0.0025
772;0.0028
773;0.0022
774;0.0028
775;0.0021
776;0.0017
777;0.0021
778;0.0019
779;0.0018
780;0.0013
781;0.0017
782;0.0022
783;0.003
784;0.0015
785;0.0012
786;0.0018
787;0.0016
788;0.0025
789;0.0017
790;0.002
791;0.0016
792;0.0022
793;0.0022
794;0.002
795;0.002
796;0.0018
797;0.002
798;0.0024
799;0.002
800;0.0022