File: data/raw_data/uvvis/20170915 Azodye/Azo-dye 1-10.csv
Azo-dye 1-10.csv;;Kemi1\Kemi01;15-09-2017 13:24:49;GENESYS 10S UV-Vis;2L9T161212;4.006
nm;A
200;2.7947
201;2.8485
202;2.8896
203;2.9436
204;2.9718
205;2.9888
206;2.9943
207;2.9769
208;2.9521
209;2.9777
210;2.9695
211;2.9628
212;2.9633
213;2.971
214;2.9889
215;2.9694
216;2.9769
217;2.9733
218;2.9802
219;2.984
220;2.986
221;2.9871
222;2.9905
223;2.9975
224;3.0064
225;3.0217
226;3.0179
227;3.0302
228;3.0585
229;3.0723
230;3.062
231;3.0322
232;3.0116
233;2.9827
234;2.9767
235;2.9772
236;2.9556
237;2.9482
238;2.9327
239;2.9189
240;2.9142
241;2.9284
242;2.9421
243;2.9412
244;2.9046
245;2.8463
246;2.7789
247;2.6137
248;2.3372
249;2.0127
250;1.677
251;1.3925
252;1.195
253;1.071
254;0.982
255;0.9178
256;0.8839
257;0.8705
258;0.872
259;0.8827
260;0.8964
261;0.9094
262;0.9282
263;0.9525
264;0.9801
265;1.0156
266;1.059
267;1.1029
268;1.1499
269;1.1976
270;1.236
271;1.2665
272;1.2817
273;1.2928
274;1.3058
275;1.3239
276;1.3526
277;1.3866
278;1.4265
279;1.4716
280;1.5122
281;1.5341
282;1.5313
283;1.5067
284;1.4648
285;1.4148
286;1.3695
287;1.3363
288;1.3144
289;1.304
290;1.3063
291;1.3103
292;1.3006
293;1.2675
294;1.203
295;1.1276
296;1.0453
297;0.9564
298;0.88
299;0.8124
300;0.7473
301;0.6965
302;0.6559
303;0.623
304;0.5955
305;0.5716
306;0.5509
307;0.5328
308;0.5164
309;0.5013
310;0.4878
311;0.4747
312;0.4626
313;0.4512
314;0.4391
315;0.4299
316;0.422
317;0.4141
318;0.4076
319;0.4021
320;0.3981
321;0.395
322;0.3926
323;0.3907
324;0.3904
325;0.3911
326;0.3927
327;0.3949
328;0.398
329;0.4016
330;0.4057
331;0.4107
332;0.4157
333;0.4202
334;0.4247
335;0.4294
336;0.4333
337;0.437
338;0.4401
339;0.4424
340;0.4439
341;0.4454
342;0.446
343;0.4455
344;0.4446
345;0.443
346;0.44
347;0.4361
348;0.4308
349;0.4239
350;0.4154
351;0.4051
352;0.3925
353;0.3782
354;0.3635
355;0.3467
356;0.3282
357;0.3086
358;0.2897
359;0.2675
360;0.2459
361;0.2239
362;0.2068
363;0.1889
364;0.1686
365;0.151
366;0.1353
367;0.1206
368;0.1067
369;0.0944
370;0.083
371;0.0729
372;0.0645
373;0.0564
374;0.0494
375;0.0435
376;0.0384
377;0.0339
378;0.0307
379;0.0279
380;0.0251
381;0.0221
382;0.0208
383;0.0185
384;0.017
385;0.0155
386;0.0145
387;0.0137
388;0.013
389;0.0122
390;0.0114
391;0.0108
392;0.0106
393;0.0098
394;0.0099
395;0.0097
396;0.0096
397;0.0092
398;0.0089
399;0.0083
400;0.009
401;0.0086
402;0.0084
403;0.008
404;0.0085
405;0.0086
406;0.0082
407;0.0084
408;0.0085
409;0.0083
410;0.0083
411;0.0083
412;0.0085
413;0.0086
414;0.0083
415;0.0087
416;0.0088
417;0.0089
418;0.0088
419;0.0088
420;0.009
421;0.009
422;0.0088
423;0.009
424;0.0089
425;0.0088
426;0.0086
427;0.0087
428;0.0085
429;0.0082
430;0.0084
431;0.0081
432;0.0082
433;0.008
434;0.0081
435;0.0078
436;0.0078
437;0.0076
438;0.0076
439;0.0074
440;0.0074
441;0.0072
442;0.0072
443;0.0071
444;0.007
445;0.0068
446;0.0066
447;0.0067
448;0.0065
449;0.0065
450;0.0065
451;0.0063
452;0.006
453;0.0057
454;0.0056
455;0.0057
456;0.006
457;0.0058
458;0.0052
459;0.0056
460;0.0055
461;0.0054
462;0.0052
463;0.0051
464;0.005
465;0.0051
466;0.0046
467;0.0048
468;0.0047
469;0.0047
470;0.0045
471;0.0042
472;0.0043
473;0.0043
474;0.0045
475;0.004
476;0.0041
477;0.0046
478;0.0042
479;0.0045
480;0.0044
481;0.0044
482;0.0047
483;0.0043
484;0.0043
485;0.004
486;0.005
487;0.0044
488;0.0047
489;0.0049
490;0.0047
491;0.0049
492;0.0049
493;0.0048
494;0.0048
495;0.0046
496;0.005
497;0.0048
498;0.005
499;0.0048
500;0.0043
501;0.0046
502;0.0049
503;0.0049
504;0.0044
505;0.0047
506;0.0043
507;0.0049
508;0.0046
509;0.0041
510;0.0043
511;0.0037
512;0.0047
513;0.0037
514;0.0038
515;0.0044
516;0.004
517;0.0042
518;0.0041
519;0.0039
520;0.0041
521;0.004
522;0.0038
523;0.0034
524;0.0034
525;0.0033
526;0.0031
527;0.0033
528;0.0034
529;0.0032
530;0.0033
531;0.0028
532;0.0028
533;0.0029
534;0.0027
535;0.0025
536;0.0018
537;0.0019
538;0.0021
539;0.0015
540;0.0016
541;0.0016
542;0.0016
543;0.0017
544;0.001
545;0.0009
546;0.0011
547;0.001
548;0.0014
549;0.0007
550;0.0005
551;0.0014
552;0.0004
553;0.0001
554;0
555;0.0003
556;0.0002
557;-0.0003
558;0
559;-0.0003
560;-0.0008
561;-0.0005
562;-0.001
563;-0.0009
564;-0.0012
565;0.0001
566;-0.0007
567;-0.0005
568;-0.0004
569;-0.0013
570;-0.0013
571;-0.0015
572;-0.0012
573;-0.002
574;-0.0016
575;-0.0015
576;-0.002
577;-0.0009
578;-0.0019
579;-0.0019
580;-0.0018
581;-0.0021
582;-0.0024
583;-0.0019
584;-0.0023
585;-0.0021
586;-0.0029
587;-0.0025
588;-0.003
589;-0.002
590;-0.0022
591;-0.0025
592;-0.0019
593;-0.0022
594;-0.0029
595;-0.0025
596;-0.0019
597;-0.002
598;-0.0017
599;-0.0026
600;-0.0028
601;-0.0027
602;-0.0024
603;-0.0027
604;-0.0023
605;-0.0024
606;-0.0019
607;-0.0031
608;-0.0019
609;-0.0017
610;-0.0022
611;-0.0016
612;-0.0027
613;-0.0028
614;-0.0026
615;-0.0031
616;-0.0019
617;-0.0031
618;-0.0017
619;-0.0028
620;-0.0025
621;-0.0027
622;-0.0027
623;-0.0026
624;-0.0029
625;-0.0034
626;-0.0026
627;-0.0022
628;-0.0036
629;-0.0032
630;-0.003
631;-0.0032
632;-0.0032
633;-0.0034
634;-0.0035
635;-0.0031
636;-0.0031
637;-0.0032
638;-0.0033
639;-0.0033
640;-0.0036
641;-0.0033
642;-0.0041
643;-0.0035
644;-0.0037
645;-0.0035
646;-0.0033
647;-0.0035
648;-0.0032
649;-0.0032
650;-0.0032
651;-0.0032
652;-0.0032
653;-0.0032
654;-0.0029
655;-0.0035
656;-0.0033
657;-0.0036
658;-0.003
659;-0.0029
660;-0.0023
661;-0.003
662;-0.0033
663;-0.0036
664;-0.0037
665;-0.0033
666;-0.0032
667;-0.0028
668;-0.0029
669;-0.002
670;-0.0029
671;-0.0027
672;-0.0016
673;-0.0024
674;-0.0015
675;-0.0027
676;-0.0028
677;-0.0028
678;-0.0018
679;-0.0024
680;-0.0023
681;-0.0022
682;-0.0022
683;-0.001
684;-0.0022
685;-0.0024
686;-0.0024
687;-0.0019
688;-0.0021
689;-0.0023
690;-0.0023
691;-0.0022
692;-0.0026
693;-0.0025
694;-0.0023
695;-0.0024
696;-0.0023
697;-0.001
698;-0.002
699;-0.0022
700;-0.0018
701;-0.0025
702;-0.0021
703;-0.0026
704;-0.0021
705;-0.0025
706;-0.0024
707;-0.0026
708;-0.0029
709;-0.0025
710;-0.0024
711;-0.0024
712;-0.0023
713;-0.0021
714;-0.0029
715;-0.0027
716;-0.002
717;-0.0027
718;-0.0031
719;-0.0018
720;-0.0026
721;-0.0022
722;-0.0025
723;-0.0027
724;-0.0018
725;-0.0017
726;-0.0019
727;-0.0024
728;-0.0028
729;-0.0025
730;-0.0021
731;-0.0025
732;-0.0025
733;-0.0025
734;-0.0012
735;-0.0024
736;-0.0027
737;-0.0025
738;-0.0027
739;-0.0025
740;-0.0021
741;-0.0026
742;-0.0028
743;-0.0024
744;-0.0037
745;-0.0023
746;-0.0024
747;-0.0031
748;-0.0013
749;-0.0031
750;-0.0028
751;-0.002
752;-0.0018
753;-0.0021
754;-0.0015
755;-0.0022
756;-0.0019
757;-0.0014
758;-0.0019
759;-0.0025
760;-0.0022
761;-0.0009
762;-0.0021
763;-0.0016
764;-0.0017
765;-0.0023
766;-0.0019
767;-0.0028
768;-0.0015
769;-0.0016
770;-0.0023
771;-0.0016
772;-0.002
773;-0.0017
774;-0.0013
775;-0.0023
776;-0.0017
777;-0.0026
778;-0.0017
779;-0.0021
780;-0.0018
781;-0.0021
782;-0.0021
783;-0.0014
784;-0.0017
785;-0.0018
786;-0.0016
787;-0.0018
788;-0.0027
789;-0.0024
790;-0.0014
791;-0.0019
792;-0.0016
793;-0.0018
794;-0.0022
795;-0.0013
796;-0.0022
797;-0.0022
798;-0.0017
799;-0.0017
800;-0.0007