File: data/raw_data/electrochemistry/20170904_Gr-NH2_prod_for_Radisurf/15 min cv 1.txt
Sept. 4, 2017   10:54:56
Cyclic Voltammetry
File: 15 min cv 1
Data Source:  Experiment
Instrument Model:  CHI601D
Header:
Note:

Init E (V) = 0.2
High E (V) = 0.2
Low E (V) = -1
Final E (V) = 0.2
Init P/N = N
Scan Rate (V/s) = 0.1
Segment = 2
Sample Interval (V) = 0.001
Quiet Time (sec) = 2
Sensitivity (A/V) = 1e-5

Potential/V, Current/A

Segment 1:
0.200, -1.880e-8
0.199, -3.216e-8
0.198, -3.545e-8
0.197, -4.054e-8
0.196, -4.167e-8
0.195, -4.568e-8
0.194, -4.663e-8
0.193, -5.007e-8
0.192, -5.060e-8
0.191, -5.401e-8
0.190, -5.469e-8
0.189, -5.767e-8
0.188, -5.769e-8
0.187, -6.095e-8
0.186, -6.116e-8
0.185, -6.391e-8
0.184, -6.441e-8
0.183, -6.701e-8
0.182, -6.709e-8
0.181, -7.027e-8
0.180, -7.012e-8
0.179, -7.294e-8
0.178, -7.296e-8
0.177, -7.600e-8
0.176, -7.592e-8
0.175, -7.925e-8
0.174, -7.924e-8
0.173, -8.188e-8
0.172, -8.174e-8
0.171, -8.455e-8
0.170, -8.423e-8
0.169, -8.691e-8
0.168, -8.718e-8
0.167, -8.992e-8
0.166, -8.976e-8
0.165, -9.310e-8
0.164, -9.288e-8
0.163, -9.581e-8
0.162, -9.583e-8
0.161, -9.883e-8
0.160, -9.864e-8
0.159, -1.017e-7
0.158, -1.017e-7
0.157, -1.047e-7
0.156, -1.046e-7
0.155, -1.077e-7
0.154, -1.074e-7
0.153, -1.100e-7
0.152, -1.103e-7
0.151, -1.129e-7
0.150, -1.127e-7
0.149, -1.161e-7
0.148, -1.160e-7
0.147, -1.190e-7
0.146, -1.190e-7
0.145, -1.223e-7
0.144, -1.220e-7
0.143, -1.252e-7
0.142, -1.254e-7
0.141, -1.285e-7
0.140, -1.283e-7
0.139, -1.315e-7
0.138, -1.312e-7
0.137, -1.339e-7
0.136, -1.343e-7
0.135, -1.370e-7
0.134, -1.372e-7
0.133, -1.406e-7
0.132, -1.404e-7
0.131, -1.433e-7
0.130, -1.436e-7
0.129, -1.468e-7
0.128, -1.468e-7
0.127, -1.501e-7
0.126, -1.504e-7
0.125, -1.535e-7
0.124, -1.535e-7
0.123, -1.569e-7
0.122, -1.567e-7
0.121, -1.598e-7
0.120, -1.602e-7
0.119, -1.632e-7
0.118, -1.631e-7
0.117, -1.667e-7
0.116, -1.667e-7
0.115, -1.699e-7
0.114, -1.704e-7
0.113, -1.741e-7
0.112, -1.741e-7
0.111, -1.779e-7
0.110, -1.781e-7
0.109, -1.810e-7
0.108, -1.811e-7
0.107, -1.846e-7
0.106, -1.845e-7
0.105, -1.879e-7
0.104, -1.885e-7
0.103, -1.915e-7
0.102, -1.915e-7
0.101, -1.953e-7
0.100, -1.953e-7
0.099, -1.992e-7
0.098, -1.995e-7
0.097, -2.035e-7
0.096, -2.039e-7
0.095, -2.072e-7
0.094, -2.076e-7
0.093, -2.110e-7
0.092, -2.112e-7
0.091, -2.151e-7
0.090, -2.152e-7
0.089, -2.186e-7
0.088, -2.194e-7
0.087, -2.230e-7
0.086, -2.231e-7
0.085, -2.275e-7
0.084, -2.277e-7
0.083, -2.311e-7
0.082, -2.315e-7
0.081, -2.351e-7
0.080, -2.352e-7
0.079, -2.391e-7
0.078, -2.399e-7
0.077, -2.432e-7
0.076, -2.436e-7
0.075, -2.477e-7
0.074, -2.481e-7
0.073, -2.520e-7
0.072, -2.529e-7
0.071, -2.566e-7
0.070, -2.569e-7
0.069, -2.612e-7
0.068, -2.614e-7
0.067, -2.652e-7
0.066, -2.659e-7
0.065, -2.699e-7
0.064, -2.704e-7
0.063, -2.747e-7
0.062, -2.754e-7
0.061, -2.790e-7
0.060, -2.794e-7
0.059, -2.838e-7
0.058, -2.840e-7
0.057, -2.879e-7
0.056, -2.890e-7
0.055, -2.925e-7
0.054, -2.930e-7
0.053, -2.974e-7
0.052, -2.980e-7
0.051, -3.021e-7
0.050, -3.029e-7
0.049, -3.072e-7
0.048, -3.075e-7
0.047, -3.117e-7
0.046, -3.127e-7
0.045, -3.166e-7
0.044, -3.171e-7
0.043, -3.220e-7
0.042, -3.223e-7
0.041, -3.263e-7
0.040, -3.275e-7
0.039, -3.316e-7
0.038, -3.320e-7
0.037, -3.362e-7
0.036, -3.368e-7
0.035, -3.406e-7
0.034, -3.416e-7
0.033, -3.461e-7
0.032, -3.470e-7
0.031, -3.515e-7
0.030, -3.524e-7
0.029, -3.561e-7
0.028, -3.569e-7
0.027, -3.616e-7
0.026, -3.623e-7
0.025, -3.664e-7
0.024, -3.675e-7
0.023, -3.719e-7
0.022, -3.728e-7
0.021, -3.770e-7
0.020, -3.779e-7
0.019, -3.818e-7
0.018, -3.830e-7
0.017, -3.872e-7
0.016, -3.880e-7
0.015, -3.921e-7
0.014, -3.933e-7
0.013, -3.978e-7
0.012, -3.987e-7
0.011, -4.033e-7
0.010, -4.042e-7
0.009, -4.085e-7
0.008, -4.098e-7
0.007, -4.140e-7
0.006, -4.148e-7
0.005, -4.197e-7
0.004, -4.207e-7
0.003, -4.249e-7
0.002, -4.261e-7
0.001, -4.303e-7
-0.000, -4.308e-7
-0.001, -4.354e-7
-0.002, -4.368e-7
-0.003, -4.409e-7
-0.004, -4.420e-7
-0.005, -4.470e-7
-0.006, -4.476e-7
-0.007, -4.520e-7
-0.008, -4.536e-7
-0.009, -4.583e-7
-0.010, -4.592e-7
-0.011, -4.638e-7
-0.012, -4.649e-7
-0.013, -4.695e-7
-0.014, -4.709e-7
-0.015, -4.750e-7
-0.016, -4.759e-7
-0.017, -4.801e-7
-0.018, -4.817e-7
-0.019, -4.860e-7
-0.020, -4.870e-7
-0.021, -4.919e-7
-0.022, -4.929e-7
-0.023, -4.974e-7
-0.024, -4.990e-7
-0.025, -5.030e-7
-0.026, -5.041e-7
-0.027, -5.092e-7
-0.028, -5.103e-7
-0.029, -5.146e-7
-0.030, -5.161e-7
-0.031, -5.210e-7
-0.032, -5.223e-7
-0.033, -5.262e-7
-0.034, -5.277e-7
-0.035, -5.320e-7
-0.036, -5.331e-7
-0.037, -5.383e-7
-0.038, -5.392e-7
-0.039, -5.437e-7
-0.040, -5.455e-7
-0.041, -5.497e-7
-0.042, -5.506e-7
-0.043, -5.555e-7
-0.044, -5.568e-7
-0.045, -5.614e-7
-0.046, -5.627e-7
-0.047, -5.681e-7
-0.048, -5.693e-7
-0.049, -5.736e-7
-0.050, -5.750e-7
-0.051, -5.795e-7
-0.052, -5.806e-7
-0.053, -5.856e-7
-0.054, -5.866e-7
-0.055, -5.914e-7
-0.056, -5.934e-7
-0.057, -5.977e-7
-0.058, -5.989e-7
-0.059, -6.037e-7
-0.060, -6.051e-7
-0.061, -6.095e-7
-0.062, -6.110e-7
-0.063, -6.164e-7
-0.064, -6.180e-7
-0.065, -6.223e-7
-0.066, -6.240e-7
-0.067, -6.284e-7
-0.068, -6.295e-7
-0.069, -6.347e-7
-0.070, -6.356e-7
-0.071, -6.404e-7
-0.072, -6.423e-7
-0.073, -6.467e-7
-0.074, -6.479e-7
-0.075, -6.530e-7
-0.076, -6.543e-7
-0.077, -6.587e-7
-0.078, -6.603e-7
-0.079, -6.655e-7
-0.080, -6.667e-7
-0.081, -6.715e-7
-0.082, -6.734e-7
-0.083, -6.780e-7
-0.084, -6.793e-7
-0.085, -6.843e-7
-0.086, -6.855e-7
-0.087, -6.904e-7
-0.088, -6.926e-7
-0.089, -6.970e-7
-0.090, -6.985e-7
-0.091, -7.038e-7
-0.092, -7.052e-7
-0.093, -7.095e-7
-0.094, -7.114e-7
-0.095, -7.168e-7
-0.096, -7.182e-7
-0.097, -7.228e-7
-0.098, -7.249e-7
-0.099, -7.295e-7
-0.100, -7.309e-7
-0.101, -7.359e-7
-0.102, -7.370e-7
-0.103, -7.414e-7
-0.104, -7.435e-7
-0.105, -7.481e-7
-0.106, -7.499e-7
-0.107, -7.551e-7
-0.108, -7.569e-7
-0.109, -7.619e-7
-0.110, -7.639e-7
-0.111, -7.688e-7
-0.112, -7.703e-7
-0.113, -7.748e-7
-0.114, -7.772e-7
-0.115, -7.821e-7
-0.116, -7.838e-7
-0.117, -7.897e-7
-0.118, -7.912e-7
-0.119, -7.956e-7
-0.120, -7.977e-7
-0.121, -8.026e-7
-0.122, -8.042e-7
-0.123, -8.094e-7
-0.124, -8.113e-7
-0.125, -8.163e-7
-0.126, -8.182e-7
-0.127, -8.228e-7
-0.128, -8.248e-7
-0.129, -8.299e-7
-0.130, -8.322e-7
-0.131, -8.372e-7
-0.132, -8.392e-7
-0.133, -8.444e-7
-0.134, -8.462e-7
-0.135, -8.512e-7
-0.136, -8.537e-7
-0.137, -8.586e-7
-0.138, -8.606e-7
-0.139, -8.662e-7
-0.140, -8.681e-7
-0.141, -8.731e-7
-0.142, -8.752e-7
-0.143, -8.801e-7
-0.144, -8.824e-7
-0.145, -8.882e-7
-0.146, -8.905e-7
-0.147, -8.953e-7
-0.148, -8.972e-7
-0.149, -9.031e-7
-0.150, -9.047e-7
-0.151, -9.101e-7
-0.152, -9.129e-7
-0.153, -9.177e-7
-0.154, -9.198e-7
-0.155, -9.255e-7
-0.156, -9.275e-7
-0.157, -9.325e-7
-0.158, -9.348e-7
-0.159, -9.406e-7
-0.160, -9.428e-7
-0.161, -9.484e-7
-0.162, -9.512e-7
-0.163, -9.560e-7
-0.164, -9.584e-7
-0.165, -9.644e-7
-0.166, -9.664e-7
-0.167, -9.713e-7
-0.168, -9.743e-7
-0.169, -9.792e-7
-0.170, -9.813e-7
-0.171, -9.875e-7
-0.172, -9.898e-7
-0.173, -9.955e-7
-0.174, -9.979e-7
-0.175, -1.004e-6
-0.176, -1.006e-6
-0.177, -1.012e-6
-0.178, -1.015e-6
-0.179, -1.020e-6
-0.180, -1.022e-6
-0.181, -1.028e-6
-0.182, -1.030e-6
-0.183, -1.036e-6
-0.184, -1.039e-6
-0.185, -1.045e-6
-0.186, -1.047e-6
-0.187, -1.053e-6
-0.188, -1.056e-6
-0.189, -1.062e-6
-0.190, -1.064e-6
-0.191, -1.070e-6
-0.192, -1.073e-6
-0.193, -1.079e-6
-0.194, -1.082e-6
-0.195, -1.087e-6
-0.196, -1.090e-6
-0.197, -1.096e-6
-0.198, -1.099e-6
-0.199, -1.105e-6
-0.200, -1.108e-6
-0.201, -1.113e-6
-0.202, -1.116e-6
-0.203, -1.122e-6
-0.204, -1.125e-6
-0.205, -1.132e-6
-0.206, -1.135e-6
-0.207, -1.140e-6
-0.208, -1.143e-6
-0.209, -1.149e-6
-0.210, -1.152e-6
-0.211, -1.159e-6
-0.212, -1.162e-6
-0.213, -1.168e-6
-0.214, -1.170e-6
-0.215, -1.176e-6
-0.216, -1.180e-6
-0.217, -1.186e-6
-0.218, -1.189e-6
-0.219, -1.195e-6
-0.220, -1.199e-6
-0.221, -1.205e-6
-0.222, -1.208e-6
-0.223, -1.215e-6
-0.224, -1.218e-6
-0.225, -1.224e-6
-0.226, -1.228e-6
-0.227, -1.234e-6
-0.228, -1.237e-6
-0.229, -1.244e-6
-0.230, -1.247e-6
-0.231, -1.253e-6
-0.232, -1.257e-6
-0.233, -1.263e-6
-0.234, -1.266e-6
-0.235, -1.273e-6
-0.236, -1.276e-6
-0.237, -1.283e-6
-0.238, -1.286e-6
-0.239, -1.293e-6
-0.240, -1.297e-6
-0.241, -1.303e-6
-0.242, -1.307e-6
-0.243, -1.313e-6
-0.244, -1.317e-6
-0.245, -1.324e-6
-0.246, -1.328e-6
-0.247, -1.334e-6
-0.248, -1.338e-6
-0.249, -1.345e-6
-0.250, -1.348e-6
-0.251, -1.356e-6
-0.252, -1.359e-6
-0.253, -1.366e-6
-0.254, -1.370e-6
-0.255, -1.378e-6
-0.256, -1.381e-6
-0.257, -1.388e-6
-0.258, -1.392e-6
-0.259, -1.399e-6
-0.260, -1.403e-6
-0.261, -1.410e-6
-0.262, -1.414e-6
-0.263, -1.421e-6
-0.264, -1.426e-6
-0.265, -1.433e-6
-0.266, -1.436e-6
-0.267, -1.444e-6
-0.268, -1.449e-6
-0.269, -1.456e-6
-0.270, -1.460e-6
-0.271, -1.468e-6
-0.272, -1.472e-6
-0.273, -1.479e-6
-0.274, -1.484e-6
-0.275, -1.491e-6
-0.276, -1.496e-6
-0.277, -1.504e-6
-0.278, -1.508e-6
-0.279, -1.515e-6
-0.280, -1.521e-6
-0.281, -1.528e-6
-0.282, -1.533e-6
-0.283, -1.541e-6
-0.284, -1.546e-6
-0.285, -1.553e-6
-0.286, -1.559e-6
-0.287, -1.567e-6
-0.288, -1.572e-6
-0.289, -1.580e-6
-0.290, -1.586e-6
-0.291, -1.593e-6
-0.292, -1.599e-6
-0.293, -1.607e-6
-0.294, -1.612e-6
-0.295, -1.621e-6
-0.296, -1.627e-6
-0.297, -1.635e-6
-0.298, -1.641e-6
-0.299, -1.650e-6
-0.300, -1.655e-6
-0.301, -1.664e-6
-0.302, -1.670e-6
-0.303, -1.679e-6
-0.304, -1.684e-6
-0.305, -1.693e-6
-0.306, -1.700e-6
-0.307, -1.708e-6
-0.308, -1.714e-6
-0.309, -1.724e-6
-0.310, -1.730e-6
-0.311, -1.739e-6
-0.312, -1.747e-6
-0.313, -1.756e-6
-0.314, -1.763e-6
-0.315, -1.773e-6
-0.316, -1.780e-6
-0.317, -1.789e-6
-0.318, -1.797e-6
-0.319, -1.807e-6
-0.320, -1.815e-6
-0.321, -1.825e-6
-0.322, -1.833e-6
-0.323, -1.843e-6
-0.324, -1.850e-6
-0.325, -1.861e-6
-0.326, -1.869e-6
-0.327, -1.879e-6
-0.328, -1.888e-6
-0.329, -1.899e-6
-0.330, -1.907e-6
-0.331, -1.919e-6
-0.332, -1.928e-6
-0.333, -1.939e-6
-0.334, -1.947e-6
-0.335, -1.959e-6
-0.336, -1.967e-6
-0.337, -1.979e-6
-0.338, -1.989e-6
-0.339, -2.001e-6
-0.340, -2.010e-6
-0.341, -2.023e-6
-0.342, -2.032e-6
-0.343, -2.044e-6
-0.344, -2.054e-6
-0.345, -2.066e-6
-0.346, -2.076e-6
-0.347, -2.090e-6
-0.348, -2.100e-6
-0.349, -2.112e-6
-0.350, -2.123e-6
-0.351, -2.136e-6
-0.352, -2.147e-6
-0.353, -2.160e-6
-0.354, -2.172e-6
-0.355, -2.185e-6
-0.356, -2.196e-6
-0.357, -2.210e-6
-0.358, -2.221e-6
-0.359, -2.235e-6
-0.360, -2.247e-6
-0.361, -2.261e-6
-0.362, -2.272e-6
-0.363, -2.286e-6
-0.364, -2.299e-6
-0.365, -2.312e-6
-0.366, -2.324e-6
-0.367, -2.339e-6
-0.368, -2.351e-6
-0.369, -2.365e-6
-0.370, -2.377e-6
-0.371, -2.391e-6
-0.372, -2.404e-6
-0.373, -2.419e-6
-0.374, -2.431e-6
-0.375, -2.445e-6
-0.376, -2.458e-6
-0.377, -2.473e-6
-0.378, -2.485e-6
-0.379, -2.499e-6
-0.380, -2.511e-6
-0.381, -2.525e-6
-0.382, -2.537e-6
-0.383, -2.552e-6
-0.384, -2.563e-6
-0.385, -2.577e-6
-0.386, -2.589e-6
-0.387, -2.603e-6
-0.388, -2.614e-6
-0.389, -2.628e-6
-0.390, -2.639e-6
-0.391, -2.652e-6
-0.392, -2.663e-6
-0.393, -2.676e-6
-0.394, -2.685e-6
-0.395, -2.698e-6
-0.396, -2.709e-6
-0.397, -2.721e-6
-0.398, -2.730e-6
-0.399, -2.742e-6
-0.400, -2.751e-6
-0.401, -2.761e-6
-0.402, -2.771e-6
-0.403, -2.782e-6
-0.404, -2.790e-6
-0.405, -2.801e-6
-0.406, -2.808e-6
-0.407, -2.817e-6
-0.408, -2.826e-6
-0.409, -2.834e-6
-0.410, -2.840e-6
-0.411, -2.850e-6
-0.412, -2.856e-6
-0.413, -2.864e-6
-0.414, -2.871e-6
-0.415, -2.880e-6
-0.416, -2.886e-6
-0.417, -2.892e-6
-0.418, -2.899e-6
-0.419, -2.906e-6
-0.420, -2.911e-6
-0.421, -2.918e-6
-0.422, -2.924e-6
-0.423, -2.929e-6
-0.424, -2.935e-6
-0.425, -2.941e-6
-0.426, -2.946e-6
-0.427, -2.952e-6
-0.428, -2.957e-6
-0.429, -2.963e-6
-0.430, -2.967e-6
-0.431, -2.974e-6
-0.432, -2.977e-6
-0.433, -2.982e-6
-0.434, -2.987e-6
-0.435, -2.993e-6
-0.436, -2.997e-6
-0.437, -3.004e-6
-0.438, -3.007e-6
-0.439, -3.012e-6
-0.440, -3.017e-6
-0.441, -3.023e-6
-0.442, -3.026e-6
-0.443, -3.032e-6
-0.444, -3.036e-6
-0.445, -3.041e-6
-0.446, -3.045e-6
-0.447, -3.051e-6
-0.448, -3.055e-6
-0.449, -3.060e-6
-0.450, -3.065e-6
-0.451, -3.070e-6
-0.452, -3.073e-6
-0.453, -3.080e-6
-0.454, -3.083e-6
-0.455, -3.088e-6
-0.456, -3.093e-6
-0.457, -3.098e-6
-0.458, -3.102e-6
-0.459, -3.108e-6
-0.460, -3.112e-6
-0.461, -3.118e-6
-0.462, -3.122e-6
-0.463, -3.129e-6
-0.464, -3.132e-6
-0.465, -3.138e-6
-0.466, -3.143e-6
-0.467, -3.148e-6
-0.468, -3.152e-6
-0.469, -3.159e-6
-0.470, -3.163e-6
-0.471, -3.169e-6
-0.472, -3.174e-6
-0.473, -3.179e-6
-0.474, -3.184e-6
-0.475, -3.190e-6
-0.476, -3.195e-6
-0.477, -3.201e-6
-0.478, -3.206e-6
-0.479, -3.212e-6
-0.480, -3.217e-6
-0.481, -3.223e-6
-0.482, -3.228e-6
-0.483, -3.234e-6
-0.484, -3.239e-6
-0.485, -3.245e-6
-0.486, -3.249e-6
-0.487, -3.255e-6
-0.488, -3.262e-6
-0.489, -3.268e-6
-0.490, -3.272e-6
-0.491, -3.279e-6
-0.492, -3.284e-6
-0.493, -3.291e-6
-0.494, -3.295e-6
-0.495, -3.302e-6
-0.496, -3.306e-6
-0.497, -3.313e-6
-0.498, -3.319e-6
-0.499, -3.325e-6
-0.500, -3.330e-6
-0.501, -3.338e-6
-0.502, -3.343e-6
-0.503, -3.349e-6
-0.504, -3.354e-6
-0.505, -3.361e-6
-0.506, -3.367e-6
-0.507, -3.373e-6
-0.508, -3.379e-6
-0.509, -3.385e-6
-0.510, -3.391e-6
-0.511, -3.398e-6
-0.512, -3.401e-6
-0.513, -3.408e-6
-0.514, -3.415e-6
-0.515, -3.421e-6
-0.516, -3.426e-6
-0.517, -3.433e-6
-0.518, -3.439e-6
-0.519, -3.446e-6
-0.520, -3.452e-6
-0.521, -3.459e-6
-0.522, -3.464e-6
-0.523, -3.471e-6
-0.524, -3.477e-6
-0.525, -3.484e-6
-0.526, -3.489e-6
-0.527, -3.496e-6
-0.528, -3.502e-6
-0.529, -3.510e-6
-0.530, -3.515e-6
-0.531, -3.522e-6
-0.532, -3.527e-6
-0.533, -3.535e-6
-0.534, -3.540e-6
-0.535, -3.547e-6
-0.536, -3.553e-6
-0.537, -3.560e-6
-0.538, -3.566e-6
-0.539, -3.573e-6
-0.540, -3.579e-6
-0.541, -3.586e-6
-0.542, -3.591e-6
-0.543, -3.599e-6
-0.544, -3.604e-6
-0.545, -3.612e-6
-0.546, -3.618e-6
-0.547, -3.625e-6
-0.548, -3.630e-6
-0.549, -3.638e-6
-0.550, -3.643e-6
-0.551, -3.650e-6
-0.552, -3.657e-6
-0.553, -3.665e-6
-0.554, -3.670e-6
-0.555, -3.677e-6
-0.556, -3.684e-6
-0.557, -3.691e-6
-0.558, -3.696e-6
-0.559, -3.704e-6
-0.560, -3.709e-6
-0.561, -3.716e-6
-0.562, -3.723e-6
-0.563, -3.731e-6
-0.564, -3.736e-6
-0.565, -3.744e-6
-0.566, -3.750e-6
-0.567, -3.757e-6
-0.568, -3.763e-6
-0.569, -3.771e-6
-0.570, -3.777e-6
-0.571, -3.784e-6
-0.572, -3.790e-6
-0.573, -3.797e-6
-0.574, -3.804e-6
-0.575, -3.811e-6
-0.576, -3.817e-6
-0.577, -3.824e-6
-0.578, -3.831e-6
-0.579, -3.838e-6
-0.580, -3.844e-6
-0.581, -3.852e-6
-0.582, -3.858e-6
-0.583, -3.865e-6
-0.584, -3.871e-6
-0.585, -3.879e-6
-0.586, -3.884e-6
-0.587, -3.892e-6
-0.588, -3.898e-6
-0.589, -3.906e-6
-0.590, -3.912e-6
-0.591, -3.919e-6
-0.592, -3.925e-6
-0.593, -3.933e-6
-0.594, -3.940e-6
-0.595, -3.947e-6
-0.596, -3.953e-6
-0.597, -3.961e-6
-0.598, -3.967e-6
-0.599, -3.973e-6
-0.600, -3.980e-6
-0.601, -3.988e-6
-0.602, -3.994e-6
-0.603, -4.002e-6
-0.604, -4.008e-6
-0.605, -4.015e-6
-0.606, -4.022e-6
-0.607, -4.029e-6
-0.608, -4.036e-6
-0.609, -4.044e-6
-0.610, -4.051e-6
-0.611, -4.057e-6
-0.612, -4.064e-6
-0.613, -4.072e-6
-0.614, -4.078e-6
-0.615, -4.085e-6
-0.616, -4.093e-6
-0.617, -4.101e-6
-0.618, -4.106e-6
-0.619, -4.114e-6
-0.620, -4.120e-6
-0.621, -4.127e-6
-0.622, -4.134e-6
-0.623, -4.142e-6
-0.624, -4.148e-6
-0.625, -4.156e-6
-0.626, -4.163e-6
-0.627, -4.170e-6
-0.628, -4.177e-6
-0.629, -4.185e-6
-0.630, -4.191e-6
-0.631, -4.199e-6
-0.632, -4.206e-6
-0.633, -4.214e-6
-0.634, -4.221e-6
-0.635, -4.228e-6
-0.636, -4.235e-6
-0.637, -4.242e-6
-0.638, -4.249e-6
-0.639, -4.257e-6
-0.640, -4.263e-6
-0.641, -4.271e-6
-0.642, -4.279e-6
-0.643, -4.286e-6
-0.644, -4.292e-6
-0.645, -4.301e-6
-0.646, -4.307e-6
-0.647, -4.315e-6
-0.648, -4.322e-6
-0.649, -4.330e-6
-0.650, -4.337e-6
-0.651, -4.345e-6
-0.652, -4.352e-6
-0.653, -4.360e-6
-0.654, -4.367e-6
-0.655, -4.375e-6
-0.656, -4.382e-6
-0.657, -4.389e-6
-0.658, -4.397e-6
-0.659, -4.405e-6
-0.660, -4.411e-6
-0.661, -4.420e-6
-0.662, -4.427e-6
-0.663, -4.434e-6
-0.664, -4.443e-6
-0.665, -4.450e-6
-0.666, -4.457e-6
-0.667, -4.465e-6
-0.668, -4.473e-6
-0.669, -4.480e-6
-0.670, -4.487e-6
-0.671, -4.496e-6
-0.672, -4.503e-6
-0.673, -4.511e-6
-0.674, -4.519e-6
-0.675, -4.526e-6
-0.676, -4.533e-6
-0.677, -4.542e-6
-0.678, -4.548e-6
-0.679, -4.556e-6
-0.680, -4.564e-6
-0.681, -4.572e-6
-0.682, -4.579e-6
-0.683, -4.588e-6
-0.684, -4.595e-6
-0.685, -4.603e-6
-0.686, -4.611e-6
-0.687, -4.620e-6
-0.688, -4.627e-6
-0.689, -4.635e-6
-0.690, -4.643e-6
-0.691, -4.651e-6
-0.692, -4.658e-6
-0.693, -4.667e-6
-0.694, -4.674e-6
-0.695, -4.681e-6
-0.696, -4.690e-6
-0.697, -4.698e-6
-0.698, -4.705e-6
-0.699, -4.714e-6
-0.700, -4.722e-6
-0.701, -4.729e-6
-0.702, -4.737e-6
-0.703, -4.746e-6
-0.704, -4.753e-6
-0.705, -4.762e-6
-0.706, -4.770e-6
-0.707, -4.779e-6
-0.708, -4.786e-6
-0.709, -4.795e-6
-0.710, -4.802e-6
-0.711, -4.810e-6
-0.712, -4.819e-6
-0.713, -4.827e-6
-0.714, -4.834e-6
-0.715, -4.843e-6
-0.716, -4.851e-6
-0.717, -4.858e-6
-0.718, -4.865e-6
-0.719, -4.874e-6
-0.720, -4.882e-6
-0.721, -4.891e-6
-0.722, -4.899e-6
-0.723, -4.908e-6
-0.724, -4.916e-6
-0.725, -4.926e-6
-0.726, -4.933e-6
-0.727, -4.939e-6
-0.728, -4.948e-6
-0.729, -4.957e-6
-0.730, -4.965e-6
-0.731, -4.974e-6
-0.732, -4.982e-6
-0.733, -4.990e-6
-0.734, -4.998e-6
-0.735, -5.007e-6
-0.736, -5.015e-6
-0.737, -5.024e-6
-0.738, -5.033e-6
-0.739, -5.041e-6
-0.740, -5.048e-6
-0.741, -5.058e-6
-0.742, -5.066e-6
-0.743, -5.075e-6
-0.744, -5.084e-6
-0.745, -5.092e-6
-0.746, -5.099e-6
-0.747, -5.109e-6
-0.748, -5.117e-6
-0.749, -5.126e-6
-0.750, -5.135e-6
-0.751, -5.143e-6
-0.752, -5.152e-6
-0.753, -5.160e-6
-0.754, -5.169e-6
-0.755, -5.178e-6
-0.756, -5.186e-6
-0.757, -5.195e-6
-0.758, -5.204e-6
-0.759, -5.212e-6
-0.760, -5.220e-6
-0.761, -5.229e-6
-0.762, -5.237e-6
-0.763, -5.246e-6
-0.764, -5.255e-6
-0.765, -5.263e-6
-0.766, -5.271e-6
-0.767, -5.281e-6
-0.768, -5.289e-6
-0.769, -5.298e-6
-0.770, -5.307e-6
-0.771, -5.316e-6
-0.772, -5.324e-6
-0.773, -5.333e-6
-0.774, -5.341e-6
-0.775, -5.350e-6
-0.776, -5.359e-6
-0.777, -5.368e-6
-0.778, -5.376e-6
-0.779, -5.385e-6
-0.780, -5.393e-6
-0.781, -5.402e-6
-0.782, -5.411e-6
-0.783, -5.421e-6
-0.784, -5.428e-6
-0.785, -5.437e-6
-0.786, -5.446e-6
-0.787, -5.455e-6
-0.788, -5.463e-6
-0.789, -5.473e-6
-0.790, -5.481e-6
-0.791, -5.489e-6
-0.792, -5.498e-6
-0.793, -5.507e-6
-0.794, -5.515e-6
-0.795, -5.525e-6
-0.796, -5.533e-6
-0.797, -5.542e-6
-0.798, -5.550e-6
-0.799, -5.560e-6
-0.800, -5.569e-6
-0.801, -5.578e-6
-0.802, -5.587e-6
-0.803, -5.596e-6
-0.804, -5.604e-6
-0.805, -5.615e-6
-0.806, -5.624e-6
-0.807, -5.632e-6
-0.808, -5.642e-6
-0.809, -5.650e-6
-0.810, -5.659e-6
-0.811, -5.668e-6
-0.812, -5.677e-6
-0.813, -5.686e-6
-0.814, -5.694e-6
-0.815, -5.704e-6
-0.816, -5.712e-6
-0.817, -5.720e-6
-0.818, -5.730e-6
-0.819, -5.740e-6
-0.820, -5.750e-6
-0.821, -5.760e-6
-0.822, -5.769e-6
-0.823, -5.777e-6
-0.824, -5.786e-6
-0.825, -5.796e-6
-0.826, -5.804e-6
-0.827, -5.813e-6
-0.828, -5.823e-6
-0.829, -5.832e-6
-0.830, -5.841e-6
-0.831, -5.850e-6
-0.832, -5.859e-6
-0.833, -5.868e-6
-0.834, -5.878e-6
-0.835, -5.887e-6
-0.836, -5.896e-6
-0.837, -5.906e-6
-0.838, -5.915e-6
-0.839, -5.923e-6
-0.840, -5.933e-6
-0.841, -5.943e-6
-0.842, -5.952e-6
-0.843, -5.962e-6
-0.844, -5.970e-6
-0.845, -5.978e-6
-0.846, -5.988e-6
-0.847, -5.998e-6
-0.848, -6.006e-6
-0.849, -6.016e-6
-0.850, -6.025e-6
-0.851, -6.035e-6
-0.852, -6.045e-6
-0.853, -6.057e-6
-0.854, -6.065e-6
-0.855, -6.074e-6
-0.856, -6.085e-6
-0.857, -6.096e-6
-0.858, -6.105e-6
-0.859, -6.115e-6
-0.860, -6.123e-6
-0.861, -6.132e-6
-0.862, -6.142e-6
-0.863, -6.152e-6
-0.864, -6.160e-6
-0.865, -6.170e-6
-0.866, -6.181e-6
-0.867, -6.190e-6
-0.868, -6.199e-6
-0.869, -6.209e-6
-0.870, -6.218e-6
-0.871, -6.228e-6
-0.872, -6.238e-6
-0.873, -6.248e-6
-0.874, -6.257e-6
-0.875, -6.266e-6
-0.876, -6.276e-6
-0.877, -6.286e-6
-0.878, -6.295e-6
-0.879, -6.306e-6
-0.880, -6.312e-6
-0.881, -6.320e-6
-0.882, -6.331e-6
-0.883, -6.341e-6
-0.884, -6.350e-6
-0.885, -6.361e-6
-0.886, -6.369e-6
-0.887, -6.378e-6
-0.888, -6.387e-6
-0.889, -6.397e-6
-0.890, -6.407e-6
-0.891, -6.417e-6
-0.892, -6.427e-6
-0.893, -6.436e-6
-0.894, -6.445e-6
-0.895, -6.455e-6
-0.896, -6.465e-6
-0.897, -6.474e-6
-0.898, -6.485e-6
-0.899, -6.494e-6
-0.900, -6.503e-6
-0.901, -6.514e-6
-0.902, -6.524e-6
-0.903, -6.533e-6
-0.904, -6.543e-6
-0.905, -6.552e-6
-0.906, -6.560e-6
-0.907, -6.570e-6
-0.908, -6.581e-6
-0.909, -6.592e-6
-0.910, -6.602e-6
-0.911, -6.612e-6
-0.912, -6.621e-6
-0.913, -6.631e-6
-0.914, -6.643e-6
-0.915, -6.654e-6
-0.916, -6.662e-6
-0.917, -6.674e-6
-0.918, -6.684e-6
-0.919, -6.691e-6
-0.920, -6.701e-6
-0.921, -6.709e-6
-0.922, -6.716e-6
-0.923, -6.726e-6
-0.924, -6.739e-6
-0.925, -6.751e-6
-0.926, -6.762e-6
-0.927, -6.770e-6
-0.928, -6.779e-6
-0.929, -6.790e-6
-0.930, -6.802e-6
-0.931, -6.813e-6
-0.932, -6.822e-6
-0.933, -6.833e-6
-0.934, -6.843e-6
-0.935, -6.853e-6
-0.936, -6.865e-6
-0.937, -6.877e-6
-0.938, -6.887e-6
-0.939, -6.897e-6
-0.940, -6.908e-6
-0.941, -6.919e-6
-0.942, -6.930e-6
-0.943, -6.941e-6
-0.944, -6.952e-6
-0.945, -6.961e-6
-0.946, -6.971e-6
-0.947, -6.982e-6
-0.948, -6.994e-6
-0.949, -7.007e-6
-0.950, -7.017e-6
-0.951, -7.027e-6
-0.952, -7.039e-6
-0.953, -7.050e-6
-0.954, -7.060e-6
-0.955, -7.071e-6
-0.956, -7.083e-6
-0.957, -7.093e-6
-0.958, -7.104e-6
-0.959, -7.116e-6
-0.960, -7.127e-6
-0.961, -7.138e-6
-0.962, -7.151e-6
-0.963, -7.161e-6
-0.964, -7.172e-6
-0.965, -7.184e-6
-0.966, -7.196e-6
-0.967, -7.206e-6
-0.968, -7.220e-6
-0.969, -7.230e-6
-0.970, -7.241e-6
-0.971, -7.251e-6
-0.972, -7.263e-6
-0.973, -7.277e-6
-0.974, -7.288e-6
-0.975, -7.300e-6
-0.976, -7.312e-6
-0.977, -7.323e-6
-0.978, -7.338e-6
-0.979, -7.349e-6
-0.980, -7.361e-6
-0.981, -7.376e-6
-0.982, -7.390e-6
-0.983, -7.400e-6
-0.984, -7.413e-6
-0.985, -7.426e-6
-0.986, -7.438e-6
-0.987, -7.449e-6
-0.988, -7.463e-6
-0.989, -7.479e-6
-0.990, -7.491e-6
-0.991, -7.503e-6
-0.992, -7.516e-6
-0.993, -7.528e-6
-0.994, -7.544e-6
-0.995, -7.556e-6
-0.996, -7.569e-6
-0.997, -7.584e-6
-0.998, -7.600e-6
-0.999, -7.613e-6

Segment 2:
-1.000, -7.598e-6
-0.999, -7.486e-6
-0.998, -7.366e-6
-0.997, -7.259e-6
-0.996, -7.162e-6
-0.995, -7.070e-6
-0.994, -6.983e-6
-0.993, -6.899e-6
-0.992, -6.819e-6
-0.991, -6.741e-6
-0.990, -6.665e-6
-0.989, -6.593e-6
-0.988, -6.525e-6
-0.987, -6.456e-6
-0.986, -6.394e-6
-0.985, -6.327e-6
-0.984, -6.263e-6
-0.983, -6.201e-6
-0.982, -6.142e-6
-0.981, -6.084e-6
-0.980, -6.029e-6
-0.979, -5.976e-6
-0.978, -5.924e-6
-0.977, -5.871e-6
-0.976, -5.821e-6
-0.975, -5.774e-6
-0.974, -5.724e-6
-0.973, -5.677e-6
-0.972, -5.629e-6
-0.971, -5.583e-6
-0.970, -5.536e-6
-0.969, -5.493e-6
-0.968, -5.450e-6
-0.967, -5.408e-6
-0.966, -5.365e-6
-0.965, -5.322e-6
-0.964, -5.281e-6
-0.963, -5.243e-6
-0.962, -5.202e-6
-0.961, -5.163e-6
-0.960, -5.124e-6
-0.959, -5.088e-6
-0.958, -5.050e-6
-0.957, -5.014e-6
-0.956, -4.978e-6
-0.955, -4.943e-6
-0.954, -4.907e-6
-0.953, -4.875e-6
-0.952, -4.840e-6
-0.951, -4.804e-6
-0.950, -4.770e-6
-0.949, -4.737e-6
-0.948, -4.705e-6
-0.947, -4.672e-6
-0.946, -4.640e-6
-0.945, -4.609e-6
-0.944, -4.578e-6
-0.943, -4.548e-6
-0.942, -4.519e-6
-0.941, -4.488e-6
-0.940, -4.458e-6
-0.939, -4.429e-6
-0.938, -4.399e-6
-0.937, -4.370e-6
-0.936, -4.343e-6
-0.935, -4.316e-6
-0.934, -4.289e-6
-0.933, -4.261e-6
-0.932, -4.236e-6
-0.931, -4.215e-6
-0.930, -4.189e-6
-0.929, -4.163e-6
-0.928, -4.136e-6
-0.927, -4.110e-6
-0.926, -4.085e-6
-0.925, -4.060e-6
-0.924, -4.034e-6
-0.923, -4.009e-6
-0.922, -3.985e-6
-0.921, -3.962e-6
-0.920, -3.938e-6
-0.919, -3.914e-6
-0.918, -3.890e-6
-0.917, -3.866e-6
-0.916, -3.843e-6
-0.915, -3.820e-6
-0.914, -3.798e-6
-0.913, -3.776e-6
-0.912, -3.754e-6
-0.911, -3.733e-6
-0.910, -3.710e-6
-0.909, -3.689e-6
-0.908, -3.669e-6
-0.907, -3.648e-6
-0.906, -3.626e-6
-0.905, -3.606e-6
-0.904, -3.585e-6
-0.903, -3.565e-6
-0.902, -3.543e-6
-0.901, -3.524e-6
-0.900, -3.504e-6
-0.899, -3.484e-6
-0.898, -3.464e-6
-0.897, -3.441e-6
-0.896, -3.421e-6
-0.895, -3.402e-6
-0.894, -3.382e-6
-0.893, -3.364e-6
-0.892, -3.345e-6
-0.891, -3.326e-6
-0.890, -3.310e-6
-0.889, -3.294e-6
-0.888, -3.277e-6
-0.887, -3.257e-6
-0.886, -3.241e-6
-0.885, -3.223e-6
-0.884, -3.205e-6
-0.883, -3.188e-6
-0.882, -3.171e-6
-0.881, -3.154e-6
-0.880, -3.137e-6
-0.879, -3.120e-6
-0.878, -3.102e-6
-0.877, -3.086e-6
-0.876, -3.070e-6
-0.875, -3.054e-6
-0.874, -3.036e-6
-0.873, -3.021e-6
-0.872, -3.005e-6
-0.871, -2.990e-6
-0.870, -2.973e-6
-0.869, -2.958e-6
-0.868, -2.942e-6
-0.867, -2.927e-6
-0.866, -2.911e-6
-0.865, -2.896e-6
-0.864, -2.881e-6
-0.863, -2.864e-6
-0.862, -2.848e-6
-0.861, -2.833e-6
-0.860, -2.816e-6
-0.859, -2.801e-6
-0.858, -2.787e-6
-0.857, -2.773e-6
-0.856, -2.760e-6
-0.855, -2.746e-6
-0.854, -2.732e-6
-0.853, -2.717e-6
-0.852, -2.702e-6
-0.851, -2.689e-6
-0.850, -2.675e-6
-0.849, -2.661e-6
-0.848, -2.648e-6
-0.847, -2.635e-6
-0.846, -2.621e-6
-0.845, -2.607e-6
-0.844, -2.595e-6
-0.843, -2.582e-6
-0.842, -2.568e-6
-0.841, -2.555e-6
-0.840, -2.541e-6
-0.839, -2.529e-6
-0.838, -2.515e-6
-0.837, -2.502e-6
-0.836, -2.489e-6
-0.835, -2.477e-6
-0.834, -2.465e-6
-0.833, -2.452e-6
-0.832, -2.439e-6
-0.831, -2.427e-6
-0.830, -2.414e-6
-0.829, -2.402e-6
-0.828, -2.390e-6
-0.827, -2.378e-6
-0.826, -2.365e-6
-0.825, -2.354e-6
-0.824, -2.342e-6
-0.823, -2.331e-6
-0.822, -2.319e-6
-0.821, -2.308e-6
-0.820, -2.296e-6
-0.819, -2.284e-6
-0.818, -2.273e-6
-0.817, -2.263e-6
-0.816, -2.252e-6
-0.815, -2.241e-6
-0.814, -2.229e-6
-0.813, -2.218e-6
-0.812, -2.208e-6
-0.811, -2.197e-6
-0.810, -2.185e-6
-0.809, -2.175e-6
-0.808, -2.162e-6
-0.807, -2.150e-6
-0.806, -2.139e-6
-0.805, -2.129e-6
-0.804, -2.117e-6
-0.803, -2.108e-6
-0.802, -2.097e-6
-0.801, -2.087e-6
-0.800, -2.075e-6
-0.799, -2.065e-6
-0.798, -2.055e-6
-0.797, -2.046e-6
-0.796, -2.035e-6
-0.795, -2.025e-6
-0.794, -2.015e-6
-0.793, -2.006e-6
-0.792, -1.995e-6
-0.791, -1.983e-6
-0.790, -1.974e-6
-0.789, -1.964e-6
-0.788, -1.954e-6
-0.787, -1.945e-6
-0.786, -1.935e-6
-0.785, -1.925e-6
-0.784, -1.915e-6
-0.783, -1.905e-6
-0.782, -1.894e-6
-0.781, -1.885e-6
-0.780, -1.875e-6
-0.779, -1.866e-6
-0.778, -1.856e-6
-0.777, -1.848e-6
-0.776, -1.838e-6
-0.775, -1.829e-6
-0.774, -1.819e-6
-0.773, -1.809e-6
-0.772, -1.800e-6
-0.771, -1.792e-6
-0.770, -1.782e-6
-0.769, -1.773e-6
-0.768, -1.763e-6
-0.767, -1.755e-6
-0.766, -1.745e-6
-0.765, -1.736e-6
-0.764, -1.728e-6
-0.763, -1.719e-6
-0.762, -1.710e-6
-0.761, -1.703e-6
-0.760, -1.693e-6
-0.759, -1.684e-6
-0.758, -1.676e-6
-0.757, -1.667e-6
-0.756, -1.659e-6
-0.755, -1.652e-6
-0.754, -1.642e-6
-0.753, -1.633e-6
-0.752, -1.623e-6
-0.751, -1.615e-6
-0.750, -1.605e-6
-0.749, -1.598e-6
-0.748, -1.590e-6
-0.747, -1.581e-6
-0.746, -1.573e-6
-0.745, -1.566e-6
-0.744, -1.557e-6
-0.743, -1.550e-6
-0.742, -1.542e-6
-0.741, -1.535e-6
-0.740, -1.525e-6
-0.739, -1.519e-6
-0.738, -1.511e-6
-0.737, -1.503e-6
-0.736, -1.495e-6
-0.735, -1.488e-6
-0.734, -1.479e-6
-0.733, -1.472e-6
-0.732, -1.464e-6
-0.731, -1.457e-6
-0.730, -1.451e-6
-0.729, -1.443e-6
-0.728, -1.435e-6
-0.727, -1.428e-6
-0.726, -1.420e-6
-0.725, -1.413e-6
-0.724, -1.405e-6
-0.723, -1.398e-6
-0.722, -1.390e-6
-0.721, -1.383e-6
-0.720, -1.376e-6
-0.719, -1.369e-6
-0.718, -1.361e-6
-0.717, -1.356e-6
-0.716, -1.348e-6
-0.715, -1.341e-6
-0.714, -1.334e-6
-0.713, -1.328e-6
-0.712, -1.321e-6
-0.711, -1.314e-6
-0.710, -1.305e-6
-0.709, -1.298e-6
-0.708, -1.291e-6
-0.707, -1.284e-6
-0.706, -1.278e-6
-0.705, -1.271e-6
-0.704, -1.265e-6
-0.703, -1.258e-6
-0.702, -1.251e-6
-0.701, -1.244e-6
-0.700, -1.238e-6
-0.699, -1.231e-6
-0.698, -1.224e-6
-0.697, -1.217e-6
-0.696, -1.210e-6
-0.695, -1.204e-6
-0.694, -1.197e-6
-0.693, -1.191e-6
-0.692, -1.184e-6
-0.691, -1.177e-6
-0.690, -1.170e-6
-0.689, -1.164e-6
-0.688, -1.158e-6
-0.687, -1.152e-6
-0.686, -1.145e-6
-0.685, -1.139e-6
-0.684, -1.133e-6
-0.683, -1.126e-6
-0.682, -1.120e-6
-0.681, -1.115e-6
-0.680, -1.108e-6
-0.679, -1.101e-6
-0.678, -1.095e-6
-0.677, -1.090e-6
-0.676, -1.083e-6
-0.675, -1.077e-6
-0.674, -1.072e-6
-0.673, -1.066e-6
-0.672, -1.060e-6
-0.671, -1.054e-6
-0.670, -1.047e-6
-0.669, -1.041e-6
-0.668, -1.035e-6
-0.667, -1.029e-6
-0.666, -1.023e-6
-0.665, -1.017e-6
-0.664, -1.012e-6
-0.663, -1.006e-6
-0.662, -9.998e-7
-0.661, -9.943e-7
-0.660, -9.880e-7
-0.659, -9.826e-7
-0.658, -9.765e-7
-0.657, -9.711e-7
-0.656, -9.661e-7
-0.655, -9.612e-7
-0.654, -9.544e-7
-0.653, -9.491e-7
-0.652, -9.427e-7
-0.651, -9.372e-7
-0.650, -9.318e-7
-0.649, -9.272e-7
-0.648, -9.214e-7
-0.647, -9.162e-7
-0.646, -9.100e-7
-0.645, -9.049e-7
-0.644, -8.991e-7
-0.643, -8.940e-7
-0.642, -8.890e-7
-0.641, -8.834e-7
-0.640, -8.775e-7
-0.639, -8.726e-7
-0.638, -8.672e-7
-0.637, -8.629e-7
-0.636, -8.573e-7
-0.635, -8.512e-7
-0.634, -8.456e-7
-0.633, -8.412e-7
-0.632, -8.351e-7
-0.631, -8.303e-7
-0.630, -8.246e-7
-0.629, -8.201e-7
-0.628, -8.149e-7
-0.627, -8.102e-7
-0.626, -8.049e-7
-0.625, -8.000e-7
-0.624, -7.951e-7
-0.623, -7.911e-7
-0.622, -7.854e-7
-0.621, -7.807e-7
-0.620, -7.751e-7
-0.619, -7.704e-7
-0.618, -7.656e-7
-0.617, -7.610e-7
-0.616, -7.556e-7
-0.615, -7.508e-7
-0.614, -7.456e-7
-0.613, -7.415e-7
-0.612, -7.363e-7
-0.611, -7.318e-7
-0.610, -7.270e-7
-0.609, -7.221e-7
-0.608, -7.171e-7
-0.607, -7.127e-7
-0.606, -7.074e-7
-0.605, -7.033e-7
-0.604, -6.985e-7
-0.603, -6.940e-7
-0.602, -6.888e-7
-0.601, -6.847e-7
-0.600, -6.798e-7
-0.599, -6.754e-7
-0.598, -6.708e-7
-0.597, -6.663e-7
-0.596, -6.608e-7
-0.595, -6.570e-7
-0.594, -6.522e-7
-0.593, -6.481e-7
-0.592, -6.434e-7
-0.591, -6.393e-7
-0.590, -6.341e-7
-0.589, -6.303e-7
-0.588, -6.255e-7
-0.587, -6.214e-7
-0.586, -6.171e-7
-0.585, -6.124e-7
-0.584, -6.075e-7
-0.583, -6.036e-7
-0.582, -5.990e-7
-0.581, -5.953e-7
-0.580, -5.904e-7
-0.579, -5.864e-7
-0.578, -5.817e-7
-0.577, -5.776e-7
-0.576, -5.732e-7
-0.575, -5.698e-7
-0.574, -5.644e-7
-0.573, -5.605e-7
-0.572, -5.560e-7
-0.571, -5.519e-7
-0.570, -5.477e-7
-0.569, -5.440e-7
-0.568, -5.392e-7
-0.567, -5.357e-7
-0.566, -5.314e-7
-0.565, -5.273e-7
-0.564, -5.232e-7
-0.563, -5.196e-7
-0.562, -5.148e-7
-0.561, -5.109e-7
-0.560, -5.066e-7
-0.559, -5.025e-7
-0.558, -4.980e-7
-0.557, -4.943e-7
-0.556, -4.898e-7
-0.555, -4.860e-7
-0.554, -4.821e-7
-0.553, -4.786e-7
-0.552, -4.743e-7
-0.551, -4.711e-7
-0.550, -4.663e-7
-0.549, -4.626e-7
-0.548, -4.581e-7
-0.547, -4.545e-7
-0.546, -4.503e-7
-0.545, -4.465e-7
-0.544, -4.422e-7
-0.543, -4.387e-7
-0.542, -4.344e-7
-0.541, -4.309e-7
-0.540, -4.271e-7
-0.539, -4.236e-7
-0.538, -4.193e-7
-0.537, -4.155e-7
-0.536, -4.115e-7
-0.535, -4.081e-7
-0.534, -4.037e-7
-0.533, -4.001e-7
-0.532, -3.958e-7
-0.531, -3.922e-7
-0.530, -3.883e-7
-0.529, -3.846e-7
-0.528, -3.807e-7
-0.527, -3.775e-7
-0.526, -3.735e-7
-0.525, -3.698e-7
-0.524, -3.659e-7
-0.523, -3.622e-7
-0.522, -3.585e-7
-0.521, -3.551e-7
-0.520, -3.509e-7
-0.519, -3.475e-7
-0.518, -3.431e-7
-0.517, -3.396e-7
-0.516, -3.359e-7
-0.515, -3.330e-7
-0.514, -3.290e-7
-0.513, -3.258e-7
-0.512, -3.221e-7
-0.511, -3.185e-7
-0.510, -3.144e-7
-0.509, -3.112e-7
-0.508, -3.074e-7
-0.507, -3.036e-7
-0.506, -2.995e-7
-0.505, -2.962e-7
-0.504, -2.920e-7
-0.503, -2.888e-7
-0.502, -2.851e-7
-0.501, -2.817e-7
-0.500, -2.781e-7
-0.499, -2.749e-7
-0.498, -2.708e-7
-0.497, -2.672e-7
-0.496, -2.637e-7
-0.495, -2.604e-7
-0.494, -2.563e-7
-0.493, -2.532e-7
-0.492, -2.491e-7
-0.491, -2.455e-7
-0.490, -2.417e-7
-0.489, -2.388e-7
-0.488, -2.346e-7
-0.487, -2.317e-7
-0.486, -2.283e-7
-0.485, -2.249e-7
-0.484, -2.208e-7
-0.483, -2.177e-7
-0.482, -2.141e-7
-0.481, -2.106e-7
-0.480, -2.070e-7
-0.479, -2.041e-7
-0.478, -1.996e-7
-0.477, -1.963e-7
-0.476, -1.927e-7
-0.475, -1.895e-7
-0.474, -1.858e-7
-0.473, -1.828e-7
-0.472, -1.793e-7
-0.471, -1.764e-7
-0.470, -1.725e-7
-0.469, -1.688e-7
-0.468, -1.653e-7
-0.467, -1.621e-7
-0.466, -1.585e-7
-0.465, -1.553e-7
-0.464, -1.520e-7
-0.463, -1.488e-7
-0.462, -1.446e-7
-0.461, -1.419e-7
-0.460, -1.382e-7
-0.459, -1.348e-7
-0.458, -1.316e-7
-0.457, -1.289e-7
-0.456, -1.250e-7
-0.455, -1.218e-7
-0.454, -1.181e-7
-0.453, -1.149e-7
-0.452, -1.114e-7
-0.451, -1.085e-7
-0.450, -1.050e-7
-0.449, -1.018e-7
-0.448, -9.817e-8
-0.447, -9.507e-8
-0.446, -9.127e-8
-0.445, -8.825e-8
-0.444, -8.489e-8
-0.443, -8.196e-8
-0.442, -7.880e-8
-0.441, -7.566e-8
-0.440, -7.197e-8
-0.439, -6.914e-8
-0.438, -6.593e-8
-0.437, -6.298e-8
-0.436, -5.954e-8
-0.435, -5.689e-8
-0.434, -5.341e-8
-0.433, -5.012e-8
-0.432, -4.707e-8
-0.431, -4.424e-8
-0.430, -4.028e-8
-0.429, -3.749e-8
-0.428, -3.434e-8
-0.427, -3.162e-8
-0.426, -2.836e-8
-0.425, -2.544e-8
-0.424, -2.198e-8
-0.423, -1.937e-8
-0.422, -1.596e-8
-0.421, -1.306e-8
-0.420, -9.812e-9
-0.419, -7.439e-9
-0.418, -4.036e-9
-0.417, -9.571e-10
-0.416, 2.122e-9
-0.415, 4.603e-9
-0.414, 8.114e-9
-0.413, 1.056e-8
-0.412, 1.371e-8
-0.411, 1.646e-8
-0.410, 1.930e-8
-0.409, 2.194e-8
-0.408, 2.519e-8
-0.407, 2.775e-8
-0.406, 3.063e-8
-0.405, 3.312e-8
-0.404, 3.626e-8
-0.403, 3.863e-8
-0.402, 4.140e-8
-0.401, 4.398e-8
-0.400, 4.694e-8
-0.399, 4.921e-8
-0.398, 5.241e-8
-0.397, 5.450e-8
-0.396, 5.734e-8
-0.395, 5.991e-8
-0.394, 6.230e-8
-0.393, 6.420e-8
-0.392, 6.704e-8
-0.391, 6.950e-8
-0.390, 7.274e-8
-0.389, 7.527e-8
-0.388, 7.780e-8
-0.387, 7.999e-8
-0.386, 8.276e-8
-0.385, 8.500e-8
-0.384, 8.735e-8
-0.383, 8.931e-8
-0.382, 9.214e-8
-0.381, 9.417e-8
-0.380, 9.675e-8
-0.379, 9.930e-8
-0.378, 1.013e-7
-0.377, 1.034e-7
-0.376, 1.060e-7
-0.375, 1.082e-7
-0.374, 1.103e-7
-0.373, 1.124e-7
-0.372, 1.146e-7
-0.371, 1.164e-7
-0.370, 1.189e-7
-0.369, 1.210e-7
-0.368, 1.234e-7
-0.367, 1.255e-7
-0.366, 1.281e-7
-0.365, 1.298e-7
-0.364, 1.320e-7
-0.363, 1.341e-7
-0.362, 1.361e-7
-0.361, 1.377e-7
-0.360, 1.401e-7
-0.359, 1.418e-7
-0.358, 1.438e-7
-0.357, 1.460e-7
-0.356, 1.480e-7
-0.355, 1.497e-7
-0.354, 1.518e-7
-0.353, 1.537e-7
-0.352, 1.557e-7
-0.351, 1.574e-7
-0.350, 1.595e-7
-0.349, 1.608e-7
-0.348, 1.625e-7
-0.347, 1.643e-7
-0.346, 1.660e-7
-0.345, 1.677e-7
-0.344, 1.700e-7
-0.343, 1.716e-7
-0.342, 1.734e-7
-0.341, 1.752e-7
-0.340, 1.773e-7
-0.339, 1.787e-7
-0.338, 1.807e-7
-0.337, 1.823e-7
-0.336, 1.839e-7
-0.335, 1.854e-7
-0.334, 1.873e-7
-0.333, 1.884e-7
-0.332, 1.901e-7
-0.331, 1.919e-7
-0.330, 1.935e-7
-0.329, 1.947e-7
-0.328, 1.968e-7
-0.327, 1.981e-7
-0.326, 1.995e-7
-0.325, 2.009e-7
-0.324, 2.026e-7
-0.323, 2.039e-7
-0.322, 2.057e-7
-0.321, 2.072e-7
-0.320, 2.086e-7
-0.319, 2.098e-7
-0.318, 2.115e-7
-0.317, 2.125e-7
-0.316, 2.136e-7
-0.315, 2.153e-7
-0.314, 2.168e-7
-0.313, 2.181e-7
-0.312, 2.199e-7
-0.311, 2.212e-7
-0.310, 2.226e-7
-0.309, 2.241e-7
-0.308, 2.256e-7
-0.307, 2.264e-7
-0.306, 2.281e-7
-0.305, 2.296e-7
-0.304, 2.310e-7
-0.303, 2.323e-7
-0.302, 2.339e-7
-0.301, 2.350e-7
-0.300, 2.362e-7
-0.299, 2.375e-7
-0.298, 2.390e-7
-0.297, 2.399e-7
-0.296, 2.416e-7
-0.295, 2.428e-7
-0.294, 2.441e-7
-0.293, 2.455e-7
-0.292, 2.468e-7
-0.291, 2.478e-7
-0.290, 2.491e-7
-0.289, 2.503e-7
-0.288, 2.515e-7
-0.287, 2.525e-7
-0.286, 2.539e-7
-0.285, 2.548e-7
-0.284, 2.560e-7
-0.283, 2.573e-7
-0.282, 2.584e-7
-0.281, 2.593e-7
-0.280, 2.607e-7
-0.279, 2.614e-7
-0.278, 2.626e-7
-0.277, 2.639e-7
-0.276, 2.652e-7
-0.275, 2.662e-7
-0.274, 2.675e-7
-0.273, 2.688e-7
-0.272, 2.698e-7
-0.271, 2.709e-7
-0.270, 2.724e-7
-0.269, 2.732e-7
-0.268, 2.743e-7
-0.267, 2.754e-7
-0.266, 2.764e-7
-0.265, 2.774e-7
-0.264, 2.788e-7
-0.263, 2.798e-7
-0.262, 2.808e-7
-0.261, 2.821e-7
-0.260, 2.831e-7
-0.259, 2.840e-7
-0.258, 2.851e-7
-0.257, 2.862e-7
-0.256, 2.873e-7
-0.255, 2.884e-7
-0.254, 2.896e-7
-0.253, 2.906e-7
-0.252, 2.916e-7
-0.251, 2.930e-7
-0.250, 2.938e-7
-0.249, 2.948e-7
-0.248, 2.959e-7
-0.247, 2.968e-7
-0.246, 2.976e-7
-0.245, 2.987e-7
-0.244, 2.997e-7
-0.243, 3.007e-7
-0.242, 3.016e-7
-0.241, 3.027e-7
-0.240, 3.035e-7
-0.239, 3.044e-7
-0.238, 3.058e-7
-0.237, 3.066e-7
-0.236, 3.074e-7
-0.235, 3.086e-7
-0.234, 3.092e-7
-0.233, 3.101e-7
-0.232, 3.113e-7
-0.231, 3.120e-7
-0.230, 3.127e-7
-0.229, 3.140e-7
-0.228, 3.149e-7
-0.227, 3.158e-7
-0.226, 3.169e-7
-0.225, 3.180e-7
-0.224, 3.188e-7
-0.223, 3.197e-7
-0.222, 3.209e-7
-0.221, 3.215e-7
-0.220, 3.225e-7
-0.219, 3.236e-7
-0.218, 3.242e-7
-0.217, 3.251e-7
-0.216, 3.262e-7
-0.215, 3.270e-7
-0.214, 3.276e-7
-0.213, 3.289e-7
-0.212, 3.296e-7
-0.211, 3.306e-7
-0.210, 3.314e-7
-0.209, 3.324e-7
-0.208, 3.332e-7
-0.207, 3.341e-7
-0.206, 3.351e-7
-0.205, 3.362e-7
-0.204, 3.368e-7
-0.203, 3.381e-7
-0.202, 3.387e-7
-0.201, 3.397e-7
-0.200, 3.408e-7
-0.199, 3.417e-7
-0.198, 3.424e-7
-0.197, 3.436e-7
-0.196, 3.443e-7
-0.195, 3.452e-7
-0.194, 3.460e-7
-0.193, 3.469e-7
-0.192, 3.476e-7
-0.191, 3.484e-7
-0.190, 3.494e-7
-0.189, 3.502e-7
-0.188, 3.507e-7
-0.187, 3.520e-7
-0.186, 3.526e-7
-0.185, 3.535e-7
-0.184, 3.544e-7
-0.183, 3.552e-7
-0.182, 3.558e-7
-0.181, 3.569e-7
-0.180, 3.575e-7
-0.179, 3.582e-7
-0.178, 3.590e-7
-0.177, 3.600e-7
-0.176, 3.605e-7
-0.175, 3.614e-7
-0.174, 3.623e-7
-0.173, 3.633e-7
-0.172, 3.638e-7
-0.171, 3.652e-7
-0.170, 3.658e-7
-0.169, 3.666e-7
-0.168, 3.677e-7
-0.167, 3.685e-7
-0.166, 3.692e-7
-0.165, 3.704e-7
-0.164, 3.708e-7
-0.163, 3.717e-7
-0.162, 3.724e-7
-0.161, 3.734e-7
-0.160, 3.740e-7
-0.159, 3.750e-7
-0.158, 3.758e-7
-0.157, 3.766e-7
-0.156, 3.772e-7
-0.155, 3.784e-7
-0.154, 3.788e-7
-0.153, 3.797e-7
-0.152, 3.807e-7
-0.151, 3.814e-7
-0.150, 3.820e-7
-0.149, 3.831e-7
-0.148, 3.836e-7
-0.147, 3.846e-7
-0.146, 3.852e-7
-0.145, 3.865e-7
-0.144, 3.869e-7
-0.143, 3.882e-7
-0.142, 3.890e-7
-0.141, 3.899e-7
-0.140, 3.907e-7
-0.139, 3.920e-7
-0.138, 3.922e-7
-0.137, 3.934e-7
-0.136, 3.942e-7
-0.135, 3.950e-7
-0.134, 3.954e-7
-0.133, 3.967e-7
-0.132, 3.971e-7
-0.131, 3.980e-7
-0.130, 3.986e-7
-0.129, 3.996e-7
-0.128, 4.002e-7
-0.127, 4.012e-7
-0.126, 4.019e-7
-0.125, 4.028e-7
-0.124, 4.031e-7
-0.123, 4.046e-7
-0.122, 4.049e-7
-0.121, 4.059e-7
-0.120, 4.065e-7
-0.119, 4.072e-7
-0.118, 4.077e-7
-0.117, 4.087e-7
-0.116, 4.092e-7
-0.115, 4.100e-7
-0.114, 4.107e-7
-0.113, 4.119e-7
-0.112, 4.121e-7
-0.111, 4.133e-7
-0.110, 4.142e-7
-0.109, 4.152e-7
-0.108, 4.157e-7
-0.107, 4.173e-7
-0.106, 4.174e-7
-0.105, 4.183e-7
-0.104, 4.190e-7
-0.103, 4.198e-7
-0.102, 4.200e-7
-0.101, 4.213e-7
-0.100, 4.218e-7
-0.099, 4.226e-7
-0.098, 4.233e-7
-0.097, 4.244e-7
-0.096, 4.245e-7
-0.095, 4.255e-7
-0.094, 4.262e-7
-0.093, 4.271e-7
-0.092, 4.273e-7
-0.091, 4.286e-7
-0.090, 4.288e-7
-0.089, 4.298e-7
-0.088, 4.304e-7
-0.087, 4.312e-7
-0.086, 4.314e-7
-0.085, 4.325e-7
-0.084, 4.326e-7
-0.083, 4.337e-7
-0.082, 4.339e-7
-0.081, 4.350e-7
-0.080, 4.350e-7
-0.079, 4.359e-7
-0.078, 4.364e-7
-0.077, 4.371e-7
-0.076, 4.372e-7
-0.075, 4.388e-7
-0.074, 4.386e-7
-0.073, 4.395e-7
-0.072, 4.399e-7
-0.071, 4.408e-7
-0.070, 4.408e-7
-0.069, 4.420e-7
-0.068, 4.420e-7
-0.067, 4.428e-7
-0.066, 4.427e-7
-0.065, 4.438e-7
-0.064, 4.437e-7
-0.063, 4.446e-7
-0.062, 4.449e-7
-0.061, 4.454e-7
-0.060, 4.454e-7
-0.059, 4.465e-7
-0.058, 4.461e-7
-0.057, 4.470e-7
-0.056, 4.471e-7
-0.055, 4.477e-7
-0.054, 4.475e-7
-0.053, 4.485e-7
-0.052, 4.483e-7
-0.051, 4.490e-7
-0.050, 4.488e-7
-0.049, 4.498e-7
-0.048, 4.494e-7
-0.047, 4.501e-7
-0.046, 4.502e-7
-0.045, 4.508e-7
-0.044, 4.504e-7
-0.043, 4.516e-7
-0.042, 4.510e-7
-0.041, 4.518e-7
-0.040, 4.518e-7
-0.039, 4.525e-7
-0.038, 4.523e-7
-0.037, 4.531e-7
-0.036, 4.528e-7
-0.035, 4.536e-7
-0.034, 4.534e-7
-0.033, 4.541e-7
-0.032, 4.539e-7
-0.031, 4.548e-7
-0.030, 4.548e-7
-0.029, 4.555e-7
-0.028, 4.551e-7
-0.027, 4.563e-7
-0.026, 4.558e-7
-0.025, 4.566e-7
-0.024, 4.567e-7
-0.023, 4.573e-7
-0.022, 4.570e-7
-0.021, 4.581e-7
-0.020, 4.578e-7
-0.019, 4.588e-7
-0.018, 4.586e-7
-0.017, 4.597e-7
-0.016, 4.594e-7
-0.015, 4.604e-7
-0.014, 4.602e-7
-0.013, 4.611e-7
-0.012, 4.608e-7
-0.011, 4.623e-7
-0.010, 4.617e-7
-0.009, 4.629e-7
-0.008, 4.632e-7
-0.007, 4.640e-7
-0.006, 4.637e-7
-0.005, 4.650e-7
-0.004, 4.648e-7
-0.003, 4.657e-7
-0.002, 4.655e-7
-0.001, 4.668e-7
-0.000, 4.661e-7
0.001, 4.672e-7
0.002, 4.675e-7
0.003, 4.685e-7
0.004, 4.680e-7
0.005, 4.694e-7
0.006, 4.691e-7
0.007, 4.702e-7
0.008, 4.703e-7
0.009, 4.710e-7
0.010, 4.708e-7
0.011, 4.722e-7
0.012, 4.720e-7
0.013, 4.730e-7
0.014, 4.728e-7
0.015, 4.740e-7
0.016, 4.737e-7
0.017, 4.748e-7
0.018, 4.750e-7
0.019, 4.758e-7
0.020, 4.756e-7
0.021, 4.770e-7
0.022, 4.766e-7
0.023, 4.777e-7
0.024, 4.777e-7
0.025, 4.786e-7
0.026, 4.783e-7
0.027, 4.797e-7
0.028, 4.795e-7
0.029, 4.803e-7
0.030, 4.803e-7
0.031, 4.815e-7
0.032, 4.812e-7
0.033, 4.822e-7
0.034, 4.821e-7
0.035, 4.832e-7
0.036, 4.827e-7
0.037, 4.844e-7
0.038, 4.839e-7
0.039, 4.850e-7
0.040, 4.850e-7
0.041, 4.859e-7
0.042, 4.855e-7
0.043, 4.872e-7
0.044, 4.868e-7
0.045, 4.879e-7
0.046, 4.878e-7
0.047, 4.891e-7
0.048, 4.886e-7
0.049, 4.897e-7
0.050, 4.897e-7
0.051, 4.907e-7
0.052, 4.905e-7
0.053, 4.919e-7
0.054, 4.915e-7
0.055, 4.925e-7
0.056, 4.924e-7
0.057, 4.935e-7
0.058, 4.932e-7
0.059, 4.945e-7
0.060, 4.941e-7
0.061, 4.951e-7
0.062, 4.951e-7
0.063, 4.964e-7
0.064, 4.960e-7
0.065, 4.974e-7
0.066, 4.971e-7
0.067, 4.983e-7
0.068, 4.978e-7
0.069, 4.996e-7
0.070, 4.989e-7
0.071, 5.004e-7
0.072, 5.002e-7
0.073, 5.014e-7
0.074, 5.007e-7
0.075, 5.025e-7
0.076, 5.019e-7
0.077, 5.032e-7
0.078, 5.028e-7
0.079, 5.041e-7
0.080, 5.037e-7
0.081, 5.047e-7
0.082, 5.047e-7
0.083, 5.057e-7
0.084, 5.053e-7
0.085, 5.068e-7
0.086, 5.062e-7
0.087, 5.072e-7
0.088, 5.073e-7
0.089, 5.083e-7
0.090, 5.079e-7
0.091, 5.093e-7
0.092, 5.088e-7
0.093, 5.099e-7
0.094, 5.097e-7
0.095, 5.113e-7
0.096, 5.105e-7
0.097, 5.120e-7
0.098, 5.117e-7
0.099, 5.131e-7
0.100, 5.127e-7
0.101, 5.143e-7
0.102, 5.133e-7
0.103, 5.143e-7
0.104, 5.146e-7
0.105, 5.159e-7
0.106, 5.152e-7
0.107, 5.170e-7
0.108, 5.164e-7
0.109, 5.176e-7
0.110, 5.173e-7
0.111, 5.186e-7
0.112, 5.181e-7
0.113, 5.193e-7
0.114, 5.192e-7
0.115, 5.202e-7
0.116, 5.197e-7
0.117, 5.214e-7
0.118, 5.206e-7
0.119, 5.217e-7
0.120, 5.216e-7
0.121, 5.229e-7
0.122, 5.223e-7
0.123, 5.240e-7
0.124, 5.233e-7
0.125, 5.246e-7
0.126, 5.242e-7
0.127, 5.258e-7
0.128, 5.251e-7
0.129, 5.262e-7
0.130, 5.262e-7
0.131, 5.273e-7
0.132, 5.268e-7
0.133, 5.285e-7
0.134, 5.277e-7
0.135, 5.291e-7
0.136, 5.287e-7
0.137, 5.298e-7
0.138, 5.292e-7
0.139, 5.309e-7
0.140, 5.303e-7
0.141, 5.317e-7
0.142, 5.311e-7
0.143, 5.326e-7
0.144, 5.319e-7
0.145, 5.334e-7
0.146, 5.330e-7
0.147, 5.343e-7
0.148, 5.336e-7
0.149, 5.356e-7
0.150, 5.346e-7
0.151, 5.361e-7
0.152, 5.357e-7
0.153, 5.371e-7
0.154, 5.362e-7
0.155, 5.381e-7
0.156, 5.375e-7
0.157, 5.390e-7
0.158, 5.382e-7
0.159, 5.400e-7
0.160, 5.392e-7
0.161, 5.405e-7
0.162, 5.403e-7
0.163, 5.414e-7
0.164, 5.406e-7
0.165, 5.425e-7
0.166, 5.417e-7
0.167, 5.430e-7
0.168, 5.427e-7
0.169, 5.438e-7
0.170, 5.430e-7
0.171, 5.448e-7
0.172, 5.440e-7
0.173, 5.454e-7
0.174, 5.450e-7
0.175, 5.466e-7
0.176, 5.455e-7
0.177, 5.469e-7
0.178, 5.468e-7
0.179, 5.481e-7
0.180, 5.472e-7
0.181, 5.492e-7
0.182, 5.481e-7
0.183, 5.497e-7
0.184, 5.494e-7
0.185, 5.510e-7
0.186, 5.501e-7
0.187, 5.519e-7
0.188, 5.509e-7
0.189, 5.525e-7
0.190, 5.519e-7
0.191, 5.536e-7
0.192, 5.528e-7
0.193, 5.541e-7
0.194, 5.539e-7
0.195, 5.551e-7
0.196, 5.543e-7
0.197, 5.563e-7
0.198, 5.553e-7
0.199, 5.566e-7