File: data/raw_data/electrochemistry/20170904_Gr-NH2_prod_for_Radisurf/30 min cv 1.txt
Sept. 4, 2017   11:12:48
Cyclic Voltammetry
File: 30 min cv 1
Data Source:  Experiment
Instrument Model:  CHI601D
Header:
Note:

Init E (V) = 0.2
High E (V) = 0.2
Low E (V) = -1
Final E (V) = 0.2
Init P/N = N
Scan Rate (V/s) = 0.1
Segment = 2
Sample Interval (V) = 0.001
Quiet Time (sec) = 2
Sensitivity (A/V) = 1e-5

Potential/V, Current/A

Segment 1:
0.200, -2.109e-8
0.199, -2.987e-8
0.198, -3.402e-8
0.197, -3.549e-8
0.196, -3.767e-8
0.195, -3.827e-8
0.194, -4.054e-8
0.193, -4.104e-8
0.192, -4.305e-8
0.191, -4.334e-8
0.190, -4.539e-8
0.189, -4.527e-8
0.188, -4.714e-8
0.187, -4.747e-8
0.186, -4.905e-8
0.185, -4.900e-8
0.184, -5.117e-8
0.183, -5.085e-8
0.182, -5.264e-8
0.181, -5.289e-8
0.180, -5.476e-8
0.179, -5.457e-8
0.178, -5.644e-8
0.177, -5.648e-8
0.176, -5.796e-8
0.175, -5.780e-8
0.174, -5.968e-8
0.173, -5.946e-8
0.172, -6.091e-8
0.171, -6.122e-8
0.170, -6.268e-8
0.169, -6.253e-8
0.168, -6.456e-8
0.167, -6.412e-8
0.166, -6.587e-8
0.165, -6.592e-8
0.164, -6.762e-8
0.163, -6.726e-8
0.162, -6.919e-8
0.161, -6.905e-8
0.160, -7.072e-8
0.159, -7.063e-8
0.158, -7.233e-8
0.157, -7.197e-8
0.156, -7.377e-8
0.155, -7.397e-8
0.154, -7.566e-8
0.153, -7.536e-8
0.152, -7.770e-8
0.151, -7.723e-8
0.150, -7.911e-8
0.149, -7.906e-8
0.148, -8.099e-8
0.147, -8.064e-8
0.146, -8.229e-8
0.145, -8.217e-8
0.144, -8.372e-8
0.143, -8.357e-8
0.142, -8.555e-8
0.141, -8.527e-8
0.140, -8.704e-8
0.139, -8.708e-8
0.138, -8.874e-8
0.137, -8.857e-8
0.136, -9.086e-8
0.135, -9.042e-8
0.134, -9.245e-8
0.133, -9.245e-8
0.132, -9.438e-8
0.131, -9.406e-8
0.130, -9.644e-8
0.129, -9.607e-8
0.128, -9.806e-8
0.127, -9.769e-8
0.126, -1.001e-7
0.125, -9.955e-8
0.124, -1.017e-7
0.123, -1.019e-7
0.122, -1.038e-7
0.121, -1.036e-7
0.120, -1.058e-7
0.119, -1.053e-7
0.118, -1.073e-7
0.117, -1.074e-7
0.116, -1.093e-7
0.115, -1.088e-7
0.114, -1.110e-7
0.113, -1.109e-7
0.112, -1.128e-7
0.111, -1.128e-7
0.110, -1.151e-7
0.109, -1.146e-7
0.108, -1.168e-7
0.107, -1.168e-7
0.106, -1.189e-7
0.105, -1.185e-7
0.104, -1.211e-7
0.103, -1.206e-7
0.102, -1.227e-7
0.101, -1.228e-7
0.100, -1.252e-7
0.099, -1.248e-7
0.098, -1.275e-7
0.097, -1.273e-7
0.096, -1.296e-7
0.095, -1.293e-7
0.094, -1.315e-7
0.093, -1.311e-7
0.092, -1.333e-7
0.091, -1.332e-7
0.090, -1.354e-7
0.089, -1.351e-7
0.088, -1.378e-7
0.087, -1.373e-7
0.086, -1.396e-7
0.085, -1.396e-7
0.084, -1.420e-7
0.083, -1.417e-7
0.082, -1.442e-7
0.081, -1.439e-7
0.080, -1.462e-7
0.079, -1.461e-7
0.078, -1.490e-7
0.077, -1.485e-7
0.076, -1.513e-7
0.075, -1.512e-7
0.074, -1.536e-7
0.073, -1.533e-7
0.072, -1.560e-7
0.071, -1.555e-7
0.070, -1.577e-7
0.069, -1.577e-7
0.068, -1.602e-7
0.067, -1.598e-7
0.066, -1.626e-7
0.065, -1.626e-7
0.064, -1.652e-7
0.063, -1.648e-7
0.062, -1.677e-7
0.061, -1.672e-7
0.060, -1.699e-7
0.059, -1.701e-7
0.058, -1.726e-7
0.057, -1.722e-7
0.056, -1.759e-7
0.055, -1.754e-7
0.054, -1.781e-7
0.053, -1.781e-7
0.052, -1.805e-7
0.051, -1.803e-7
0.050, -1.828e-7
0.049, -1.825e-7
0.048, -1.850e-7
0.047, -1.850e-7
0.046, -1.879e-7
0.045, -1.875e-7
0.044, -1.904e-7
0.043, -1.904e-7
0.042, -1.930e-7
0.041, -1.927e-7
0.040, -1.960e-7
0.039, -1.957e-7
0.038, -1.989e-7
0.037, -1.990e-7
0.036, -2.021e-7
0.035, -2.015e-7
0.034, -2.050e-7
0.033, -2.047e-7
0.032, -2.076e-7
0.031, -2.073e-7
0.030, -2.105e-7
0.029, -2.100e-7
0.028, -2.130e-7
0.027, -2.133e-7
0.026, -2.162e-7
0.025, -2.158e-7
0.024, -2.191e-7
0.023, -2.186e-7
0.022, -2.219e-7
0.021, -2.220e-7
0.020, -2.254e-7
0.019, -2.251e-7
0.018, -2.283e-7
0.017, -2.282e-7
0.016, -2.308e-7
0.015, -2.308e-7
0.014, -2.341e-7
0.013, -2.337e-7
0.012, -2.368e-7
0.011, -2.370e-7
0.010, -2.399e-7
0.009, -2.397e-7
0.008, -2.432e-7
0.007, -2.428e-7
0.006, -2.461e-7
0.005, -2.461e-7
0.004, -2.496e-7
0.003, -2.492e-7
0.002, -2.531e-7
0.001, -2.530e-7
-0.000, -2.558e-7
-0.001, -2.558e-7
-0.002, -2.596e-7
-0.003, -2.592e-7
-0.004, -2.625e-7
-0.005, -2.628e-7
-0.006, -2.659e-7
-0.007, -2.657e-7
-0.008, -2.693e-7
-0.009, -2.691e-7
-0.010, -2.725e-7
-0.011, -2.730e-7
-0.012, -2.763e-7
-0.013, -2.762e-7
-0.014, -2.795e-7
-0.015, -2.795e-7
-0.016, -2.829e-7
-0.017, -2.828e-7
-0.018, -2.865e-7
-0.019, -2.863e-7
-0.020, -2.897e-7
-0.021, -2.900e-7
-0.022, -2.930e-7
-0.023, -2.930e-7
-0.024, -2.970e-7
-0.025, -2.968e-7
-0.026, -3.004e-7
-0.027, -3.006e-7
-0.028, -3.040e-7
-0.029, -3.038e-7
-0.030, -3.076e-7
-0.031, -3.078e-7
-0.032, -3.116e-7
-0.033, -3.115e-7
-0.034, -3.152e-7
-0.035, -3.150e-7
-0.036, -3.183e-7
-0.037, -3.190e-7
-0.038, -3.225e-7
-0.039, -3.225e-7
-0.040, -3.267e-7
-0.041, -3.265e-7
-0.042, -3.297e-7
-0.043, -3.304e-7
-0.044, -3.336e-7
-0.045, -3.338e-7
-0.046, -3.372e-7
-0.047, -3.373e-7
-0.048, -3.406e-7
-0.049, -3.409e-7
-0.050, -3.450e-7
-0.051, -3.450e-7
-0.052, -3.490e-7
-0.053, -3.494e-7
-0.054, -3.529e-7
-0.055, -3.530e-7
-0.056, -3.570e-7
-0.057, -3.570e-7
-0.058, -3.608e-7
-0.059, -3.612e-7
-0.060, -3.647e-7
-0.061, -3.647e-7
-0.062, -3.687e-7
-0.063, -3.692e-7
-0.064, -3.732e-7
-0.065, -3.734e-7
-0.066, -3.772e-7
-0.067, -3.771e-7
-0.068, -3.807e-7
-0.069, -3.814e-7
-0.070, -3.849e-7
-0.071, -3.852e-7
-0.072, -3.893e-7
-0.073, -3.892e-7
-0.074, -3.928e-7
-0.075, -3.936e-7
-0.076, -3.976e-7
-0.077, -3.976e-7
-0.078, -4.019e-7
-0.079, -4.021e-7
-0.080, -4.062e-7
-0.081, -4.064e-7
-0.082, -4.107e-7
-0.083, -4.108e-7
-0.084, -4.146e-7
-0.085, -4.154e-7
-0.086, -4.192e-7
-0.087, -4.194e-7
-0.088, -4.240e-7
-0.089, -4.242e-7
-0.090, -4.280e-7
-0.091, -4.286e-7
-0.092, -4.326e-7
-0.093, -4.328e-7
-0.094, -4.371e-7
-0.095, -4.374e-7
-0.096, -4.414e-7
-0.097, -4.417e-7
-0.098, -4.464e-7
-0.099, -4.465e-7
-0.100, -4.504e-7
-0.101, -4.514e-7
-0.102, -4.551e-7
-0.103, -4.554e-7
-0.104, -4.604e-7
-0.105, -4.607e-7
-0.106, -4.646e-7
-0.107, -4.654e-7
-0.108, -4.698e-7
-0.109, -4.704e-7
-0.110, -4.745e-7
-0.111, -4.751e-7
-0.112, -4.789e-7
-0.113, -4.792e-7
-0.114, -4.839e-7
-0.115, -4.843e-7
-0.116, -4.883e-7
-0.117, -4.893e-7
-0.118, -4.932e-7
-0.119, -4.938e-7
-0.120, -4.987e-7
-0.121, -4.990e-7
-0.122, -5.031e-7
-0.123, -5.041e-7
-0.124, -5.084e-7
-0.125, -5.091e-7
-0.126, -5.136e-7
-0.127, -5.143e-7
-0.128, -5.190e-7
-0.129, -5.195e-7
-0.130, -5.238e-7
-0.131, -5.243e-7
-0.132, -5.285e-7
-0.133, -5.298e-7
-0.134, -5.341e-7
-0.135, -5.348e-7
-0.136, -5.394e-7
-0.137, -5.402e-7
-0.138, -5.445e-7
-0.139, -5.456e-7
-0.140, -5.497e-7
-0.141, -5.504e-7
-0.142, -5.552e-7
-0.143, -5.560e-7
-0.144, -5.606e-7
-0.145, -5.613e-7
-0.146, -5.667e-7
-0.147, -5.674e-7
-0.148, -5.720e-7
-0.149, -5.731e-7
-0.150, -5.771e-7
-0.151, -5.780e-7
-0.152, -5.830e-7
-0.153, -5.837e-7
-0.154, -5.883e-7
-0.155, -5.896e-7
-0.156, -5.944e-7
-0.157, -5.956e-7
-0.158, -5.999e-7
-0.159, -6.011e-7
-0.160, -6.057e-7
-0.161, -6.067e-7
-0.162, -6.118e-7
-0.163, -6.127e-7
-0.164, -6.181e-7
-0.165, -6.197e-7
-0.166, -6.237e-7
-0.167, -6.247e-7
-0.168, -6.299e-7
-0.169, -6.308e-7
-0.170, -6.350e-7
-0.171, -6.368e-7
-0.172, -6.417e-7
-0.173, -6.430e-7
-0.174, -6.476e-7
-0.175, -6.489e-7
-0.176, -6.536e-7
-0.177, -6.549e-7
-0.178, -6.599e-7
-0.179, -6.612e-7
-0.180, -6.664e-7
-0.181, -6.682e-7
-0.182, -6.727e-7
-0.183, -6.740e-7
-0.184, -6.794e-7
-0.185, -6.804e-7
-0.186, -6.852e-7
-0.187, -6.869e-7
-0.188, -6.919e-7
-0.189, -6.935e-7
-0.190, -6.984e-7
-0.191, -7.001e-7
-0.192, -7.051e-7
-0.193, -7.066e-7
-0.194, -7.120e-7
-0.195, -7.133e-7
-0.196, -7.184e-7
-0.197, -7.205e-7
-0.198, -7.254e-7
-0.199, -7.269e-7
-0.200, -7.322e-7
-0.201, -7.336e-7
-0.202, -7.383e-7
-0.203, -7.405e-7
-0.204, -7.453e-7
-0.205, -7.472e-7
-0.206, -7.525e-7
-0.207, -7.543e-7
-0.208, -7.592e-7
-0.209, -7.611e-7
-0.210, -7.669e-7
-0.211, -7.683e-7
-0.212, -7.730e-7
-0.213, -7.753e-7
-0.214, -7.804e-7
-0.215, -7.822e-7
-0.216, -7.883e-7
-0.217, -7.901e-7
-0.218, -7.951e-7
-0.219, -7.970e-7
-0.220, -8.020e-7
-0.221, -8.041e-7
-0.222, -8.091e-7
-0.223, -8.116e-7
-0.224, -8.169e-7
-0.225, -8.185e-7
-0.226, -8.238e-7
-0.227, -8.255e-7
-0.228, -8.310e-7
-0.229, -8.337e-7
-0.230, -8.392e-7
-0.231, -8.410e-7
-0.232, -8.465e-7
-0.233, -8.485e-7
-0.234, -8.537e-7
-0.235, -8.562e-7
-0.236, -8.620e-7
-0.237, -8.642e-7
-0.238, -8.692e-7
-0.239, -8.714e-7
-0.240, -8.768e-7
-0.241, -8.790e-7
-0.242, -8.852e-7
-0.243, -8.872e-7
-0.244, -8.927e-7
-0.245, -8.954e-7
-0.246, -9.005e-7
-0.247, -9.024e-7
-0.248, -9.084e-7
-0.249, -9.109e-7
-0.250, -9.163e-7
-0.251, -9.188e-7
-0.252, -9.240e-7
-0.253, -9.262e-7
-0.254, -9.317e-7
-0.255, -9.344e-7
-0.256, -9.403e-7
-0.257, -9.429e-7
-0.258, -9.486e-7
-0.259, -9.507e-7
-0.260, -9.562e-7
-0.261, -9.595e-7
-0.262, -9.649e-7
-0.263, -9.670e-7
-0.264, -9.731e-7
-0.265, -9.753e-7
-0.266, -9.807e-7
-0.267, -9.836e-7
-0.268, -9.896e-7
-0.269, -9.920e-7
-0.270, -9.980e-7
-0.271, -1.001e-6
-0.272, -1.006e-6
-0.273, -1.009e-6
-0.274, -1.015e-6
-0.275, -1.017e-6
-0.276, -1.023e-6
-0.277, -1.026e-6
-0.278, -1.032e-6
-0.279, -1.034e-6
-0.280, -1.041e-6
-0.281, -1.043e-6
-0.282, -1.049e-6
-0.283, -1.052e-6
-0.284, -1.058e-6
-0.285, -1.061e-6
-0.286, -1.067e-6
-0.287, -1.070e-6
-0.288, -1.075e-6
-0.289, -1.078e-6
-0.290, -1.084e-6
-0.291, -1.087e-6
-0.292, -1.093e-6
-0.293, -1.097e-6
-0.294, -1.102e-6
-0.295, -1.105e-6
-0.296, -1.112e-6
-0.297, -1.114e-6
-0.298, -1.120e-6
-0.299, -1.123e-6
-0.300, -1.130e-6
-0.301, -1.132e-6
-0.302, -1.139e-6
-0.303, -1.142e-6
-0.304, -1.147e-6
-0.305, -1.150e-6
-0.306, -1.158e-6
-0.307, -1.160e-6
-0.308, -1.166e-6
-0.309, -1.170e-6
-0.310, -1.175e-6
-0.311, -1.178e-6
-0.312, -1.185e-6
-0.313, -1.188e-6
-0.314, -1.194e-6
-0.315, -1.198e-6
-0.316, -1.204e-6
-0.317, -1.207e-6
-0.318, -1.214e-6
-0.319, -1.218e-6
-0.320, -1.223e-6
-0.321, -1.227e-6
-0.322, -1.234e-6
-0.323, -1.237e-6
-0.324, -1.243e-6
-0.325, -1.247e-6
-0.326, -1.253e-6
-0.327, -1.257e-6
-0.328, -1.263e-6
-0.329, -1.267e-6
-0.330, -1.273e-6
-0.331, -1.277e-6
-0.332, -1.283e-6
-0.333, -1.286e-6
-0.334, -1.293e-6
-0.335, -1.297e-6
-0.336, -1.303e-6
-0.337, -1.307e-6
-0.338, -1.314e-6
-0.339, -1.318e-6
-0.340, -1.324e-6
-0.341, -1.328e-6
-0.342, -1.334e-6
-0.343, -1.337e-6
-0.344, -1.345e-6
-0.345, -1.348e-6
-0.346, -1.355e-6
-0.347, -1.359e-6
-0.348, -1.365e-6
-0.349, -1.369e-6
-0.350, -1.376e-6
-0.351, -1.380e-6
-0.352, -1.387e-6
-0.353, -1.390e-6
-0.354, -1.398e-6
-0.355, -1.401e-6
-0.356, -1.408e-6
-0.357, -1.412e-6
-0.358, -1.419e-6
-0.359, -1.423e-6
-0.360, -1.430e-6
-0.361, -1.434e-6
-0.362, -1.441e-6
-0.363, -1.445e-6
-0.364, -1.452e-6
-0.365, -1.456e-6
-0.366, -1.463e-6
-0.367, -1.467e-6
-0.368, -1.474e-6
-0.369, -1.479e-6
-0.370, -1.486e-6
-0.371, -1.490e-6
-0.372, -1.496e-6
-0.373, -1.502e-6
-0.374, -1.508e-6
-0.375, -1.512e-6
-0.376, -1.519e-6
-0.377, -1.523e-6
-0.378, -1.530e-6
-0.379, -1.535e-6
-0.380, -1.542e-6
-0.381, -1.546e-6
-0.382, -1.554e-6
-0.383, -1.558e-6
-0.384, -1.565e-6
-0.385, -1.570e-6
-0.386, -1.577e-6
-0.387, -1.582e-6
-0.388, -1.589e-6
-0.389, -1.594e-6
-0.390, -1.601e-6
-0.391, -1.605e-6
-0.392, -1.613e-6
-0.393, -1.617e-6
-0.394, -1.624e-6
-0.395, -1.629e-6
-0.396, -1.637e-6
-0.397, -1.642e-6
-0.398, -1.649e-6
-0.399, -1.654e-6
-0.400, -1.661e-6
-0.401, -1.666e-6
-0.402, -1.673e-6
-0.403, -1.678e-6
-0.404, -1.685e-6
-0.405, -1.691e-6
-0.406, -1.698e-6
-0.407, -1.703e-6
-0.408, -1.711e-6
-0.409, -1.715e-6
-0.410, -1.722e-6
-0.411, -1.727e-6
-0.412, -1.735e-6
-0.413, -1.739e-6
-0.414, -1.748e-6
-0.415, -1.753e-6
-0.416, -1.760e-6
-0.417, -1.765e-6
-0.418, -1.773e-6
-0.419, -1.778e-6
-0.420, -1.785e-6
-0.421, -1.791e-6
-0.422, -1.799e-6
-0.423, -1.804e-6
-0.424, -1.812e-6
-0.425, -1.817e-6
-0.426, -1.824e-6
-0.427, -1.830e-6
-0.428, -1.837e-6
-0.429, -1.843e-6
-0.430, -1.851e-6
-0.431, -1.856e-6
-0.432, -1.863e-6
-0.433, -1.869e-6
-0.434, -1.877e-6
-0.435, -1.882e-6
-0.436, -1.890e-6
-0.437, -1.896e-6
-0.438, -1.904e-6
-0.439, -1.909e-6
-0.440, -1.917e-6
-0.441, -1.923e-6
-0.442, -1.931e-6
-0.443, -1.936e-6
-0.444, -1.944e-6
-0.445, -1.950e-6
-0.446, -1.958e-6
-0.447, -1.964e-6
-0.448, -1.972e-6
-0.449, -1.978e-6
-0.450, -1.986e-6
-0.451, -1.992e-6
-0.452, -1.999e-6
-0.453, -2.006e-6
-0.454, -2.013e-6
-0.455, -2.019e-6
-0.456, -2.028e-6
-0.457, -2.034e-6
-0.458, -2.042e-6
-0.459, -2.048e-6
-0.460, -2.055e-6
-0.461, -2.061e-6
-0.462, -2.070e-6
-0.463, -2.076e-6
-0.464, -2.084e-6
-0.465, -2.090e-6
-0.466, -2.098e-6
-0.467, -2.105e-6
-0.468, -2.113e-6
-0.469, -2.119e-6
-0.470, -2.127e-6
-0.471, -2.133e-6
-0.472, -2.142e-6
-0.473, -2.148e-6
-0.474, -2.156e-6
-0.475, -2.163e-6
-0.476, -2.171e-6
-0.477, -2.178e-6
-0.478, -2.186e-6
-0.479, -2.193e-6
-0.480, -2.201e-6
-0.481, -2.207e-6
-0.482, -2.216e-6
-0.483, -2.222e-6
-0.484, -2.231e-6
-0.485, -2.238e-6
-0.486, -2.246e-6
-0.487, -2.253e-6
-0.488, -2.262e-6
-0.489, -2.268e-6
-0.490, -2.277e-6
-0.491, -2.284e-6
-0.492, -2.293e-6
-0.493, -2.300e-6
-0.494, -2.308e-6
-0.495, -2.315e-6
-0.496, -2.323e-6
-0.497, -2.330e-6
-0.498, -2.339e-6
-0.499, -2.346e-6
-0.500, -2.355e-6
-0.501, -2.362e-6
-0.502, -2.370e-6
-0.503, -2.377e-6
-0.504, -2.386e-6
-0.505, -2.393e-6
-0.506, -2.402e-6
-0.507, -2.410e-6
-0.508, -2.418e-6
-0.509, -2.426e-6
-0.510, -2.435e-6
-0.511, -2.442e-6
-0.512, -2.450e-6
-0.513, -2.458e-6
-0.514, -2.467e-6
-0.515, -2.474e-6
-0.516, -2.483e-6
-0.517, -2.491e-6
-0.518, -2.500e-6
-0.519, -2.507e-6
-0.520, -2.517e-6
-0.521, -2.524e-6
-0.522, -2.533e-6
-0.523, -2.541e-6
-0.524, -2.550e-6
-0.525, -2.558e-6
-0.526, -2.567e-6
-0.527, -2.575e-6
-0.528, -2.584e-6
-0.529, -2.592e-6
-0.530, -2.601e-6
-0.531, -2.609e-6
-0.532, -2.618e-6
-0.533, -2.627e-6
-0.534, -2.635e-6
-0.535, -2.642e-6
-0.536, -2.652e-6
-0.537, -2.659e-6
-0.538, -2.669e-6
-0.539, -2.677e-6
-0.540, -2.686e-6
-0.541, -2.694e-6
-0.542, -2.703e-6
-0.543, -2.711e-6
-0.544, -2.721e-6
-0.545, -2.729e-6
-0.546, -2.738e-6
-0.547, -2.746e-6
-0.548, -2.755e-6
-0.549, -2.764e-6
-0.550, -2.773e-6
-0.551, -2.781e-6
-0.552, -2.790e-6
-0.553, -2.798e-6
-0.554, -2.808e-6
-0.555, -2.816e-6
-0.556, -2.825e-6
-0.557, -2.833e-6
-0.558, -2.842e-6
-0.559, -2.851e-6
-0.560, -2.859e-6
-0.561, -2.867e-6
-0.562, -2.877e-6
-0.563, -2.885e-6
-0.564, -2.895e-6
-0.565, -2.903e-6
-0.566, -2.912e-6
-0.567, -2.920e-6
-0.568, -2.929e-6
-0.569, -2.937e-6
-0.570, -2.947e-6
-0.571, -2.955e-6
-0.572, -2.964e-6
-0.573, -2.972e-6
-0.574, -2.981e-6
-0.575, -2.989e-6
-0.576, -2.999e-6
-0.577, -3.007e-6
-0.578, -3.017e-6
-0.579, -3.025e-6
-0.580, -3.033e-6
-0.581, -3.042e-6
-0.582, -3.051e-6
-0.583, -3.059e-6
-0.584, -3.069e-6
-0.585, -3.076e-6
-0.586, -3.085e-6
-0.587, -3.093e-6
-0.588, -3.102e-6
-0.589, -3.110e-6
-0.590, -3.120e-6
-0.591, -3.128e-6
-0.592, -3.136e-6
-0.593, -3.144e-6
-0.594, -3.154e-6
-0.595, -3.162e-6
-0.596, -3.171e-6
-0.597, -3.179e-6
-0.598, -3.188e-6
-0.599, -3.195e-6
-0.600, -3.205e-6
-0.601, -3.213e-6
-0.602, -3.222e-6
-0.603, -3.230e-6
-0.604, -3.239e-6
-0.605, -3.246e-6
-0.606, -3.255e-6
-0.607, -3.264e-6
-0.608, -3.272e-6
-0.609, -3.280e-6
-0.610, -3.290e-6
-0.611, -3.297e-6
-0.612, -3.306e-6
-0.613, -3.315e-6
-0.614, -3.323e-6
-0.615, -3.331e-6
-0.616, -3.340e-6
-0.617, -3.348e-6
-0.618, -3.357e-6
-0.619, -3.365e-6
-0.620, -3.374e-6
-0.621, -3.382e-6
-0.622, -3.391e-6
-0.623, -3.399e-6
-0.624, -3.407e-6
-0.625, -3.415e-6
-0.626, -3.425e-6
-0.627, -3.432e-6
-0.628, -3.441e-6
-0.629, -3.450e-6
-0.630, -3.458e-6
-0.631, -3.466e-6
-0.632, -3.475e-6
-0.633, -3.483e-6
-0.634, -3.492e-6
-0.635, -3.500e-6
-0.636, -3.510e-6
-0.637, -3.517e-6
-0.638, -3.526e-6
-0.639, -3.534e-6
-0.640, -3.542e-6
-0.641, -3.550e-6
-0.642, -3.560e-6
-0.643, -3.567e-6
-0.644, -3.576e-6
-0.645, -3.585e-6
-0.646, -3.593e-6
-0.647, -3.601e-6
-0.648, -3.611e-6
-0.649, -3.618e-6
-0.650, -3.627e-6
-0.651, -3.635e-6
-0.652, -3.644e-6
-0.653, -3.652e-6
-0.654, -3.662e-6
-0.655, -3.670e-6
-0.656, -3.678e-6
-0.657, -3.686e-6
-0.658, -3.696e-6
-0.659, -3.703e-6
-0.660, -3.712e-6
-0.661, -3.721e-6
-0.662, -3.729e-6
-0.663, -3.737e-6
-0.664, -3.747e-6
-0.665, -3.755e-6
-0.666, -3.764e-6
-0.667, -3.772e-6
-0.668, -3.781e-6
-0.669, -3.789e-6
-0.670, -3.798e-6
-0.671, -3.807e-6
-0.672, -3.815e-6
-0.673, -3.824e-6
-0.674, -3.833e-6
-0.675, -3.841e-6
-0.676, -3.850e-6
-0.677, -3.859e-6
-0.678, -3.868e-6
-0.679, -3.876e-6
-0.680, -3.885e-6
-0.681, -3.893e-6
-0.682, -3.902e-6
-0.683, -3.911e-6
-0.684, -3.920e-6
-0.685, -3.928e-6
-0.686, -3.938e-6
-0.687, -3.947e-6
-0.688, -3.956e-6
-0.689, -3.964e-6
-0.690, -3.973e-6
-0.691, -3.981e-6
-0.692, -3.990e-6
-0.693, -4.000e-6
-0.694, -4.009e-6
-0.695, -4.017e-6
-0.696, -4.027e-6
-0.697, -4.035e-6
-0.698, -4.045e-6
-0.699, -4.054e-6
-0.700, -4.063e-6
-0.701, -4.071e-6
-0.702, -4.080e-6
-0.703, -4.089e-6
-0.704, -4.099e-6
-0.705, -4.107e-6
-0.706, -4.117e-6
-0.707, -4.126e-6
-0.708, -4.135e-6
-0.709, -4.144e-6
-0.710, -4.153e-6
-0.711, -4.161e-6
-0.712, -4.171e-6
-0.713, -4.180e-6
-0.714, -4.189e-6
-0.715, -4.199e-6
-0.716, -4.209e-6
-0.717, -4.217e-6
-0.718, -4.226e-6
-0.719, -4.236e-6
-0.720, -4.245e-6
-0.721, -4.253e-6
-0.722, -4.263e-6
-0.723, -4.272e-6
-0.724, -4.282e-6
-0.725, -4.291e-6
-0.726, -4.301e-6
-0.727, -4.309e-6
-0.728, -4.320e-6
-0.729, -4.329e-6
-0.730, -4.339e-6
-0.731, -4.348e-6
-0.732, -4.357e-6
-0.733, -4.366e-6
-0.734, -4.376e-6
-0.735, -4.386e-6
-0.736, -4.396e-6
-0.737, -4.404e-6
-0.738, -4.415e-6
-0.739, -4.424e-6
-0.740, -4.433e-6
-0.741, -4.443e-6
-0.742, -4.452e-6
-0.743, -4.461e-6
-0.744, -4.472e-6
-0.745, -4.481e-6
-0.746, -4.491e-6
-0.747, -4.500e-6
-0.748, -4.510e-6
-0.749, -4.520e-6
-0.750, -4.530e-6
-0.751, -4.540e-6
-0.752, -4.549e-6
-0.753, -4.558e-6
-0.754, -4.569e-6
-0.755, -4.578e-6
-0.756, -4.589e-6
-0.757, -4.598e-6
-0.758, -4.608e-6
-0.759, -4.617e-6
-0.760, -4.628e-6
-0.761, -4.637e-6
-0.762, -4.647e-6
-0.763, -4.657e-6
-0.764, -4.667e-6
-0.765, -4.676e-6
-0.766, -4.687e-6
-0.767, -4.697e-6
-0.768, -4.707e-6
-0.769, -4.716e-6
-0.770, -4.727e-6
-0.771, -4.736e-6
-0.772, -4.746e-6
-0.773, -4.756e-6
-0.774, -4.767e-6
-0.775, -4.776e-6
-0.776, -4.787e-6
-0.777, -4.797e-6
-0.778, -4.807e-6
-0.779, -4.817e-6
-0.780, -4.827e-6
-0.781, -4.837e-6
-0.782, -4.847e-6
-0.783, -4.858e-6
-0.784, -4.868e-6
-0.785, -4.877e-6
-0.786, -4.888e-6
-0.787, -4.898e-6
-0.788, -4.908e-6
-0.789, -4.919e-6
-0.790, -4.929e-6
-0.791, -4.939e-6
-0.792, -4.949e-6
-0.793, -4.960e-6
-0.794, -4.970e-6
-0.795, -4.980e-6
-0.796, -4.990e-6
-0.797, -5.000e-6
-0.798, -5.011e-6
-0.799, -5.021e-6
-0.800, -5.032e-6
-0.801, -5.042e-6
-0.802, -5.053e-6
-0.803, -5.063e-6
-0.804, -5.074e-6
-0.805, -5.085e-6
-0.806, -5.095e-6
-0.807, -5.105e-6
-0.808, -5.116e-6
-0.809, -5.126e-6
-0.810, -5.137e-6
-0.811, -5.147e-6
-0.812, -5.158e-6
-0.813, -5.168e-6
-0.814, -5.179e-6
-0.815, -5.189e-6
-0.816, -5.200e-6
-0.817, -5.209e-6
-0.818, -5.221e-6
-0.819, -5.232e-6
-0.820, -5.243e-6
-0.821, -5.254e-6
-0.822, -5.264e-6
-0.823, -5.274e-6
-0.824, -5.285e-6
-0.825, -5.295e-6
-0.826, -5.306e-6
-0.827, -5.317e-6
-0.828, -5.328e-6
-0.829, -5.338e-6
-0.830, -5.349e-6
-0.831, -5.360e-6
-0.832, -5.371e-6
-0.833, -5.381e-6
-0.834, -5.393e-6
-0.835, -5.403e-6
-0.836, -5.414e-6
-0.837, -5.425e-6
-0.838, -5.435e-6
-0.839, -5.446e-6
-0.840, -5.457e-6
-0.841, -5.468e-6
-0.842, -5.478e-6
-0.843, -5.489e-6
-0.844, -5.501e-6
-0.845, -5.511e-6
-0.846, -5.522e-6
-0.847, -5.533e-6
-0.848, -5.544e-6
-0.849, -5.554e-6
-0.850, -5.566e-6
-0.851, -5.577e-6
-0.852, -5.588e-6
-0.853, -5.600e-6
-0.854, -5.611e-6
-0.855, -5.621e-6
-0.856, -5.632e-6
-0.857, -5.643e-6
-0.858, -5.654e-6
-0.859, -5.666e-6
-0.860, -5.677e-6
-0.861, -5.687e-6
-0.862, -5.698e-6
-0.863, -5.709e-6
-0.864, -5.721e-6
-0.865, -5.732e-6
-0.866, -5.744e-6
-0.867, -5.755e-6
-0.868, -5.766e-6
-0.869, -5.777e-6
-0.870, -5.788e-6
-0.871, -5.800e-6
-0.872, -5.812e-6
-0.873, -5.823e-6
-0.874, -5.834e-6
-0.875, -5.845e-6
-0.876, -5.856e-6
-0.877, -5.867e-6
-0.878, -5.878e-6
-0.879, -5.890e-6
-0.880, -5.902e-6
-0.881, -5.913e-6
-0.882, -5.925e-6
-0.883, -5.936e-6
-0.884, -5.948e-6
-0.885, -5.961e-6
-0.886, -5.971e-6
-0.887, -5.983e-6
-0.888, -5.995e-6
-0.889, -6.006e-6
-0.890, -6.018e-6
-0.891, -6.029e-6
-0.892, -6.041e-6
-0.893, -6.052e-6
-0.894, -6.064e-6
-0.895, -6.076e-6
-0.896, -6.088e-6
-0.897, -6.099e-6
-0.898, -6.112e-6
-0.899, -6.123e-6
-0.900, -6.134e-6
-0.901, -6.147e-6
-0.902, -6.158e-6
-0.903, -6.170e-6
-0.904, -6.182e-6
-0.905, -6.195e-6
-0.906, -6.206e-6
-0.907, -6.218e-6
-0.908, -6.230e-6
-0.909, -6.241e-6
-0.910, -6.253e-6
-0.911, -6.266e-6
-0.912, -6.277e-6
-0.913, -6.289e-6
-0.914, -6.302e-6
-0.915, -6.314e-6
-0.916, -6.326e-6
-0.917, -6.338e-6
-0.918, -6.350e-6
-0.919, -6.362e-6
-0.920, -6.375e-6
-0.921, -6.387e-6
-0.922, -6.398e-6
-0.923, -6.411e-6
-0.924, -6.423e-6
-0.925, -6.435e-6
-0.926, -6.447e-6
-0.927, -6.460e-6
-0.928, -6.472e-6
-0.929, -6.484e-6
-0.930, -6.497e-6
-0.931, -6.510e-6
-0.932, -6.522e-6
-0.933, -6.535e-6
-0.934, -6.548e-6
-0.935, -6.560e-6
-0.936, -6.573e-6
-0.937, -6.585e-6
-0.938, -6.597e-6
-0.939, -6.610e-6
-0.940, -6.623e-6
-0.941, -6.636e-6
-0.942, -6.649e-6
-0.943, -6.663e-6
-0.944, -6.675e-6
-0.945, -6.689e-6
-0.946, -6.702e-6
-0.947, -6.714e-6
-0.948, -6.727e-6
-0.949, -6.741e-6
-0.950, -6.754e-6
-0.951, -6.767e-6
-0.952, -6.780e-6
-0.953, -6.794e-6
-0.954, -6.806e-6
-0.955, -6.820e-6
-0.956, -6.833e-6
-0.957, -6.847e-6
-0.958, -6.858e-6
-0.959, -6.872e-6
-0.960, -6.885e-6
-0.961, -6.899e-6
-0.962, -6.913e-6
-0.963, -6.927e-6
-0.964, -6.940e-6
-0.965, -6.954e-6
-0.966, -6.967e-6
-0.967, -6.980e-6
-0.968, -6.995e-6
-0.969, -7.009e-6
-0.970, -7.022e-6
-0.971, -7.035e-6
-0.972, -7.049e-6
-0.973, -7.064e-6
-0.974, -7.078e-6
-0.975, -7.093e-6
-0.976, -7.107e-6
-0.977, -7.122e-6
-0.978, -7.136e-6
-0.979, -7.151e-6
-0.980, -7.165e-6
-0.981, -7.180e-6
-0.982, -7.194e-6
-0.983, -7.209e-6
-0.984, -7.224e-6
-0.985, -7.240e-6
-0.986, -7.254e-6
-0.987, -7.270e-6
-0.988, -7.284e-6
-0.989, -7.300e-6
-0.990, -7.314e-6
-0.991, -7.331e-6
-0.992, -7.345e-6
-0.993, -7.361e-6
-0.994, -7.377e-6
-0.995, -7.393e-6
-0.996, -7.408e-6
-0.997, -7.424e-6
-0.998, -7.440e-6
-0.999, -7.456e-6

Segment 2:
-1.000, -7.452e-6
-0.999, -7.383e-6
-0.998, -7.307e-6
-0.997, -7.236e-6
-0.996, -7.169e-6
-0.995, -7.104e-6
-0.994, -7.042e-6
-0.993, -6.983e-6
-0.992, -6.925e-6
-0.991, -6.869e-6
-0.990, -6.812e-6
-0.989, -6.759e-6
-0.988, -6.707e-6
-0.987, -6.655e-6
-0.986, -6.605e-6
-0.985, -6.556e-6
-0.984, -6.508e-6
-0.983, -6.461e-6
-0.982, -6.415e-6
-0.981, -6.370e-6
-0.980, -6.325e-6
-0.979, -6.282e-6
-0.978, -6.239e-6
-0.977, -6.197e-6
-0.976, -6.156e-6
-0.975, -6.115e-6
-0.974, -6.074e-6
-0.973, -6.035e-6
-0.972, -5.997e-6
-0.971, -5.958e-6
-0.970, -5.920e-6
-0.969, -5.882e-6
-0.968, -5.845e-6
-0.967, -5.809e-6
-0.966, -5.773e-6
-0.965, -5.738e-6
-0.964, -5.702e-6
-0.963, -5.668e-6
-0.962, -5.634e-6
-0.961, -5.600e-6
-0.960, -5.566e-6
-0.959, -5.533e-6
-0.958, -5.500e-6
-0.957, -5.468e-6
-0.956, -5.437e-6
-0.955, -5.405e-6
-0.954, -5.374e-6
-0.953, -5.343e-6
-0.952, -5.312e-6
-0.951, -5.281e-6
-0.950, -5.252e-6
-0.949, -5.222e-6
-0.948, -5.192e-6
-0.947, -5.163e-6
-0.946, -5.135e-6
-0.945, -5.106e-6
-0.944, -5.078e-6
-0.943, -5.049e-6
-0.942, -5.021e-6
-0.941, -4.994e-6
-0.940, -4.968e-6
-0.939, -4.940e-6
-0.938, -4.913e-6
-0.937, -4.887e-6
-0.936, -4.861e-6
-0.935, -4.834e-6
-0.934, -4.809e-6
-0.933, -4.784e-6
-0.932, -4.758e-6
-0.931, -4.733e-6
-0.930, -4.708e-6
-0.929, -4.683e-6
-0.928, -4.658e-6
-0.927, -4.634e-6
-0.926, -4.609e-6
-0.925, -4.585e-6
-0.924, -4.562e-6
-0.923, -4.538e-6
-0.922, -4.515e-6
-0.921, -4.493e-6
-0.920, -4.470e-6
-0.919, -4.448e-6
-0.918, -4.425e-6
-0.917, -4.403e-6
-0.916, -4.380e-6
-0.915, -4.358e-6
-0.914, -4.336e-6
-0.913, -4.314e-6
-0.912, -4.293e-6
-0.911, -4.272e-6
-0.910, -4.250e-6
-0.909, -4.229e-6
-0.908, -4.208e-6
-0.907, -4.187e-6
-0.906, -4.166e-6
-0.905, -4.146e-6
-0.904, -4.125e-6
-0.903, -4.105e-6
-0.902, -4.085e-6
-0.901, -4.065e-6
-0.900, -4.046e-6
-0.899, -4.026e-6
-0.898, -4.006e-6
-0.897, -3.987e-6
-0.896, -3.967e-6
-0.895, -3.949e-6
-0.894, -3.929e-6
-0.893, -3.911e-6
-0.892, -3.892e-6
-0.891, -3.873e-6
-0.890, -3.855e-6
-0.889, -3.837e-6
-0.888, -3.818e-6
-0.887, -3.800e-6
-0.886, -3.782e-6
-0.885, -3.764e-6
-0.884, -3.746e-6
-0.883, -3.728e-6
-0.882, -3.711e-6
-0.881, -3.693e-6
-0.880, -3.676e-6
-0.879, -3.658e-6
-0.878, -3.641e-6
-0.877, -3.624e-6
-0.876, -3.607e-6
-0.875, -3.589e-6
-0.874, -3.573e-6
-0.873, -3.557e-6
-0.872, -3.540e-6
-0.871, -3.523e-6
-0.870, -3.507e-6
-0.869, -3.491e-6
-0.868, -3.474e-6
-0.867, -3.458e-6
-0.866, -3.442e-6
-0.865, -3.425e-6
-0.864, -3.410e-6
-0.863, -3.394e-6
-0.862, -3.378e-6
-0.861, -3.363e-6
-0.860, -3.347e-6
-0.859, -3.332e-6
-0.858, -3.317e-6
-0.857, -3.301e-6
-0.856, -3.286e-6
-0.855, -3.271e-6
-0.854, -3.256e-6
-0.853, -3.241e-6
-0.852, -3.226e-6
-0.851, -3.212e-6
-0.850, -3.197e-6
-0.849, -3.182e-6
-0.848, -3.168e-6
-0.847, -3.153e-6
-0.846, -3.139e-6
-0.845, -3.125e-6
-0.844, -3.111e-6
-0.843, -3.096e-6
-0.842, -3.083e-6
-0.841, -3.070e-6
-0.840, -3.055e-6
-0.839, -3.041e-6
-0.838, -3.027e-6
-0.837, -3.014e-6
-0.836, -3.000e-6
-0.835, -2.987e-6
-0.834, -2.973e-6
-0.833, -2.959e-6
-0.832, -2.946e-6
-0.831, -2.933e-6
-0.830, -2.920e-6
-0.829, -2.907e-6
-0.828, -2.894e-6
-0.827, -2.880e-6
-0.826, -2.867e-6
-0.825, -2.855e-6
-0.824, -2.842e-6
-0.823, -2.829e-6
-0.822, -2.816e-6
-0.821, -2.804e-6
-0.820, -2.791e-6
-0.819, -2.778e-6
-0.818, -2.766e-6
-0.817, -2.753e-6
-0.816, -2.741e-6
-0.815, -2.729e-6
-0.814, -2.716e-6
-0.813, -2.704e-6
-0.812, -2.692e-6
-0.811, -2.680e-6
-0.810, -2.668e-6
-0.809, -2.656e-6
-0.808, -2.644e-6
-0.807, -2.633e-6
-0.806, -2.621e-6
-0.805, -2.609e-6
-0.804, -2.597e-6
-0.803, -2.586e-6
-0.802, -2.574e-6
-0.801, -2.562e-6
-0.800, -2.551e-6
-0.799, -2.540e-6
-0.798, -2.528e-6
-0.797, -2.517e-6
-0.796, -2.505e-6
-0.795, -2.494e-6
-0.794, -2.483e-6
-0.793, -2.472e-6
-0.792, -2.461e-6
-0.791, -2.450e-6
-0.790, -2.439e-6
-0.789, -2.428e-6
-0.788, -2.417e-6
-0.787, -2.406e-6
-0.786, -2.395e-6
-0.785, -2.385e-6
-0.784, -2.375e-6
-0.783, -2.364e-6
-0.782, -2.353e-6
-0.781, -2.342e-6
-0.780, -2.333e-6
-0.779, -2.322e-6
-0.778, -2.311e-6
-0.777, -2.301e-6
-0.776, -2.291e-6
-0.775, -2.281e-6
-0.774, -2.270e-6
-0.773, -2.260e-6
-0.772, -2.250e-6
-0.771, -2.240e-6
-0.770, -2.230e-6
-0.769, -2.220e-6
-0.768, -2.210e-6
-0.767, -2.200e-6
-0.766, -2.190e-6
-0.765, -2.180e-6
-0.764, -2.170e-6
-0.763, -2.160e-6
-0.762, -2.151e-6
-0.761, -2.141e-6
-0.760, -2.131e-6
-0.759, -2.121e-6
-0.758, -2.112e-6
-0.757, -2.103e-6
-0.756, -2.093e-6
-0.755, -2.084e-6
-0.754, -2.074e-6
-0.753, -2.065e-6
-0.752, -2.055e-6
-0.751, -2.047e-6
-0.750, -2.037e-6
-0.749, -2.028e-6
-0.748, -2.019e-6
-0.747, -2.009e-6
-0.746, -2.000e-6
-0.745, -1.991e-6
-0.744, -1.982e-6
-0.743, -1.973e-6
-0.742, -1.964e-6
-0.741, -1.955e-6
-0.740, -1.946e-6
-0.739, -1.938e-6
-0.738, -1.929e-6
-0.737, -1.920e-6
-0.736, -1.911e-6
-0.735, -1.902e-6
-0.734, -1.893e-6
-0.733, -1.884e-6
-0.732, -1.876e-6
-0.731, -1.867e-6
-0.730, -1.859e-6
-0.729, -1.850e-6
-0.728, -1.841e-6
-0.727, -1.833e-6
-0.726, -1.825e-6
-0.725, -1.816e-6
-0.724, -1.807e-6
-0.723, -1.799e-6
-0.722, -1.791e-6
-0.721, -1.783e-6
-0.720, -1.775e-6
-0.719, -1.766e-6
-0.718, -1.758e-6
-0.717, -1.750e-6
-0.716, -1.742e-6
-0.715, -1.734e-6
-0.714, -1.726e-6
-0.713, -1.718e-6
-0.712, -1.710e-6
-0.711, -1.702e-6
-0.710, -1.694e-6
-0.709, -1.686e-6
-0.708, -1.678e-6
-0.707, -1.670e-6
-0.706, -1.662e-6
-0.705, -1.655e-6
-0.704, -1.647e-6
-0.703, -1.639e-6
-0.702, -1.631e-6
-0.701, -1.624e-6
-0.700, -1.616e-6
-0.699, -1.608e-6
-0.698, -1.601e-6
-0.697, -1.593e-6
-0.696, -1.585e-6
-0.695, -1.578e-6
-0.694, -1.570e-6
-0.693, -1.563e-6
-0.692, -1.556e-6
-0.691, -1.549e-6
-0.690, -1.541e-6
-0.689, -1.533e-6
-0.688, -1.526e-6
-0.687, -1.519e-6
-0.686, -1.511e-6
-0.685, -1.505e-6
-0.684, -1.497e-6
-0.683, -1.490e-6
-0.682, -1.483e-6
-0.681, -1.476e-6
-0.680, -1.468e-6
-0.679, -1.461e-6
-0.678, -1.454e-6
-0.677, -1.447e-6
-0.676, -1.440e-6
-0.675, -1.433e-6
-0.674, -1.426e-6
-0.673, -1.419e-6
-0.672, -1.412e-6
-0.671, -1.405e-6
-0.670, -1.398e-6
-0.669, -1.392e-6
-0.668, -1.385e-6
-0.667, -1.378e-6
-0.666, -1.371e-6
-0.665, -1.364e-6
-0.664, -1.357e-6
-0.663, -1.351e-6
-0.662, -1.344e-6
-0.661, -1.337e-6
-0.660, -1.331e-6
-0.659, -1.324e-6
-0.658, -1.317e-6
-0.657, -1.311e-6
-0.656, -1.304e-6
-0.655, -1.298e-6
-0.654, -1.291e-6
-0.653, -1.285e-6
-0.652, -1.278e-6
-0.651, -1.272e-6
-0.650, -1.265e-6
-0.649, -1.259e-6
-0.648, -1.252e-6
-0.647, -1.246e-6
-0.646, -1.239e-6
-0.645, -1.233e-6
-0.644, -1.227e-6
-0.643, -1.221e-6
-0.642, -1.214e-6
-0.641, -1.208e-6
-0.640, -1.202e-6
-0.639, -1.196e-6
-0.638, -1.189e-6
-0.637, -1.184e-6
-0.636, -1.177e-6
-0.635, -1.171e-6
-0.634, -1.165e-6
-0.633, -1.159e-6
-0.632, -1.152e-6
-0.631, -1.147e-6
-0.630, -1.140e-6
-0.629, -1.135e-6
-0.628, -1.128e-6
-0.627, -1.123e-6
-0.626, -1.117e-6
-0.625, -1.111e-6
-0.624, -1.105e-6
-0.623, -1.099e-6
-0.622, -1.093e-6
-0.621, -1.087e-6
-0.620, -1.081e-6
-0.619, -1.076e-6
-0.618, -1.070e-6
-0.617, -1.065e-6
-0.616, -1.059e-6
-0.615, -1.053e-6
-0.614, -1.047e-6
-0.613, -1.041e-6
-0.612, -1.035e-6
-0.611, -1.030e-6
-0.610, -1.024e-6
-0.609, -1.019e-6
-0.608, -1.013e-6
-0.607, -1.007e-6
-0.606, -1.001e-6
-0.605, -9.963e-7
-0.604, -9.904e-7
-0.603, -9.849e-7
-0.602, -9.789e-7
-0.601, -9.741e-7
-0.600, -9.681e-7
-0.599, -9.636e-7
-0.598, -9.577e-7
-0.597, -9.526e-7
-0.596, -9.470e-7
-0.595, -9.421e-7
-0.594, -9.360e-7
-0.593, -9.309e-7
-0.592, -9.255e-7
-0.591, -9.207e-7
-0.590, -9.151e-7
-0.589, -9.105e-7
-0.588, -9.045e-7
-0.587, -8.995e-7
-0.586, -8.943e-7
-0.585, -8.897e-7
-0.584, -8.837e-7
-0.583, -8.790e-7
-0.582, -8.734e-7
-0.581, -8.689e-7
-0.580, -8.639e-7
-0.579, -8.590e-7
-0.578, -8.532e-7
-0.577, -8.483e-7
-0.576, -8.431e-7
-0.575, -8.388e-7
-0.574, -8.329e-7
-0.573, -8.283e-7
-0.572, -8.230e-7
-0.571, -8.185e-7
-0.570, -8.137e-7
-0.569, -8.090e-7
-0.568, -8.035e-7
-0.567, -7.993e-7
-0.566, -7.943e-7
-0.565, -7.899e-7
-0.564, -7.844e-7
-0.563, -7.800e-7
-0.562, -7.745e-7
-0.561, -7.702e-7
-0.560, -7.654e-7
-0.559, -7.611e-7
-0.558, -7.556e-7
-0.557, -7.514e-7
-0.556, -7.462e-7
-0.555, -7.418e-7
-0.554, -7.370e-7
-0.553, -7.332e-7
-0.552, -7.282e-7
-0.551, -7.242e-7
-0.550, -7.190e-7
-0.549, -7.149e-7
-0.548, -7.096e-7
-0.547, -7.058e-7
-0.546, -7.008e-7
-0.545, -6.968e-7
-0.544, -6.916e-7
-0.543, -6.876e-7
-0.542, -6.826e-7
-0.541, -6.789e-7
-0.540, -6.741e-7
-0.539, -6.701e-7
-0.538, -6.651e-7
-0.537, -6.611e-7
-0.536, -6.561e-7
-0.535, -6.524e-7
-0.534, -6.476e-7
-0.533, -6.440e-7
-0.532, -6.390e-7
-0.531, -6.354e-7
-0.530, -6.307e-7
-0.529, -6.269e-7
-0.528, -6.224e-7
-0.527, -6.191e-7
-0.526, -6.134e-7
-0.525, -6.099e-7
-0.524, -6.051e-7
-0.523, -6.014e-7
-0.522, -5.970e-7
-0.521, -5.938e-7
-0.520, -5.883e-7
-0.519, -5.850e-7
-0.518, -5.804e-7
-0.517, -5.769e-7
-0.516, -5.726e-7
-0.515, -5.694e-7
-0.514, -5.644e-7
-0.513, -5.606e-7
-0.512, -5.564e-7
-0.511, -5.530e-7
-0.510, -5.484e-7
-0.509, -5.454e-7
-0.508, -5.408e-7
-0.507, -5.375e-7
-0.506, -5.331e-7
-0.505, -5.300e-7
-0.504, -5.252e-7
-0.503, -5.225e-7
-0.502, -5.181e-7
-0.501, -5.147e-7
-0.500, -5.102e-7
-0.499, -5.071e-7
-0.498, -5.023e-7
-0.497, -4.993e-7
-0.496, -4.951e-7
-0.495, -4.920e-7
-0.494, -4.873e-7
-0.493, -4.846e-7
-0.492, -4.803e-7
-0.491, -4.773e-7
-0.490, -4.736e-7
-0.489, -4.707e-7
-0.488, -4.658e-7
-0.487, -4.630e-7
-0.486, -4.590e-7
-0.485, -4.557e-7
-0.484, -4.512e-7
-0.483, -4.486e-7
-0.482, -4.443e-7
-0.481, -4.414e-7
-0.480, -4.373e-7
-0.479, -4.346e-7
-0.478, -4.302e-7
-0.477, -4.276e-7
-0.476, -4.237e-7
-0.475, -4.208e-7
-0.474, -4.166e-7
-0.473, -4.140e-7
-0.472, -4.097e-7
-0.471, -4.072e-7
-0.470, -4.031e-7
-0.469, -4.002e-7
-0.468, -3.960e-7
-0.467, -3.935e-7
-0.466, -3.894e-7
-0.465, -3.870e-7
-0.464, -3.830e-7
-0.463, -3.806e-7
-0.462, -3.767e-7
-0.461, -3.745e-7
-0.460, -3.703e-7
-0.459, -3.676e-7
-0.458, -3.638e-7
-0.457, -3.616e-7
-0.456, -3.574e-7
-0.455, -3.552e-7
-0.454, -3.513e-7
-0.453, -3.487e-7
-0.452, -3.446e-7
-0.451, -3.423e-7
-0.450, -3.383e-7
-0.449, -3.363e-7
-0.448, -3.325e-7
-0.447, -3.306e-7
-0.446, -3.264e-7
-0.445, -3.245e-7
-0.444, -3.203e-7
-0.443, -3.179e-7
-0.442, -3.144e-7
-0.441, -3.124e-7
-0.440, -3.082e-7
-0.439, -3.064e-7
-0.438, -3.023e-7
-0.437, -3.002e-7
-0.436, -2.961e-7
-0.435, -2.942e-7
-0.434, -2.905e-7
-0.433, -2.884e-7
-0.432, -2.848e-7
-0.431, -2.829e-7
-0.430, -2.789e-7
-0.429, -2.772e-7
-0.428, -2.735e-7
-0.427, -2.712e-7
-0.426, -2.675e-7
-0.425, -2.657e-7
-0.424, -2.619e-7
-0.423, -2.602e-7
-0.422, -2.565e-7
-0.421, -2.546e-7
-0.420, -2.507e-7
-0.419, -2.488e-7
-0.418, -2.449e-7
-0.417, -2.432e-7
-0.416, -2.397e-7
-0.415, -2.380e-7
-0.414, -2.341e-7
-0.413, -2.327e-7
-0.412, -2.294e-7
-0.411, -2.276e-7
-0.410, -2.240e-7
-0.409, -2.222e-7
-0.408, -2.183e-7
-0.407, -2.169e-7
-0.406, -2.135e-7
-0.405, -2.117e-7
-0.404, -2.081e-7
-0.403, -2.066e-7
-0.402, -2.031e-7
-0.401, -2.014e-7
-0.400, -1.976e-7
-0.399, -1.960e-7
-0.398, -1.924e-7
-0.397, -1.910e-7
-0.396, -1.875e-7
-0.395, -1.859e-7
-0.394, -1.827e-7
-0.393, -1.814e-7
-0.392, -1.780e-7
-0.391, -1.766e-7
-0.390, -1.726e-7
-0.389, -1.710e-7
-0.388, -1.677e-7
-0.387, -1.662e-7
-0.386, -1.627e-7
-0.385, -1.613e-7
-0.384, -1.581e-7
-0.383, -1.570e-7
-0.382, -1.535e-7
-0.381, -1.524e-7
-0.380, -1.490e-7
-0.379, -1.472e-7
-0.378, -1.438e-7
-0.377, -1.426e-7
-0.376, -1.389e-7
-0.375, -1.378e-7
-0.374, -1.345e-7
-0.373, -1.334e-7
-0.372, -1.301e-7
-0.371, -1.290e-7
-0.370, -1.258e-7
-0.369, -1.243e-7
-0.368, -1.209e-7
-0.367, -1.199e-7
-0.366, -1.162e-7
-0.365, -1.150e-7
-0.364, -1.119e-7
-0.363, -1.106e-7
-0.362, -1.074e-7
-0.361, -1.065e-7
-0.360, -1.031e-7
-0.359, -1.021e-7
-0.358, -9.871e-8
-0.357, -9.754e-8
-0.356, -9.414e-8
-0.355, -9.338e-8
-0.354, -8.974e-8
-0.353, -8.856e-8
-0.352, -8.540e-8
-0.351, -8.453e-8
-0.350, -8.136e-8
-0.349, -8.069e-8
-0.348, -7.756e-8
-0.347, -7.619e-8
-0.346, -7.285e-8
-0.345, -7.211e-8
-0.344, -6.879e-8
-0.343, -6.801e-8
-0.342, -6.494e-8
-0.341, -6.386e-8
-0.340, -6.075e-8
-0.339, -6.004e-8
-0.338, -5.687e-8
-0.337, -5.608e-8
-0.336, -5.301e-8
-0.335, -5.213e-8
-0.334, -4.850e-8
-0.333, -4.807e-8
-0.332, -4.494e-8
-0.331, -4.385e-8
-0.330, -4.065e-8
-0.329, -3.987e-8
-0.328, -3.628e-8
-0.327, -3.592e-8
-0.326, -3.281e-8
-0.325, -3.228e-8
-0.324, -2.912e-8
-0.323, -2.844e-8
-0.322, -2.500e-8
-0.321, -2.441e-8
-0.320, -2.121e-8
-0.319, -2.076e-8
-0.318, -1.750e-8
-0.317, -1.700e-8
-0.316, -1.382e-8
-0.315, -1.298e-8
-0.314, -9.950e-9
-0.313, -9.322e-9
-0.312, -6.106e-9
-0.311, -5.811e-9
-0.310, -2.565e-9
-0.309, -1.634e-9
-0.308, 1.308e-9
-0.307, 1.514e-9
-0.306, 4.672e-9
-0.305, 5.241e-9
-0.304, 8.310e-9
-0.303, 8.761e-9
-0.302, 1.246e-8
-0.301, 1.274e-8
-0.300, 1.567e-8
-0.299, 1.635e-8
-0.298, 1.913e-8
-0.297, 1.940e-8
-0.296, 2.301e-8
-0.295, 2.344e-8
-0.294, 2.639e-8
-0.293, 2.710e-8
-0.292, 2.972e-8
-0.291, 3.010e-8
-0.290, 3.339e-8
-0.289, 3.382e-8
-0.288, 3.672e-8
-0.287, 3.703e-8
-0.286, 4.024e-8
-0.285, 4.024e-8
-0.284, 4.313e-8
-0.283, 4.390e-8
-0.282, 4.657e-8
-0.281, 4.698e-8
-0.280, 5.025e-8
-0.279, 5.038e-8
-0.278, 5.312e-8
-0.277, 5.368e-8
-0.276, 5.651e-8
-0.275, 5.684e-8
-0.274, 5.978e-8
-0.273, 6.030e-8
-0.272, 6.294e-8
-0.271, 6.306e-8
-0.270, 6.543e-8
-0.269, 6.568e-8
-0.268, 6.916e-8
-0.267, 6.957e-8
-0.266, 7.277e-8
-0.265, 7.292e-8
-0.264, 7.636e-8
-0.263, 7.661e-8
-0.262, 7.942e-8
-0.261, 7.976e-8
-0.260, 8.254e-8
-0.259, 8.274e-8
-0.258, 8.576e-8
-0.257, 8.596e-8
-0.256, 8.865e-8
-0.255, 8.877e-8
-0.254, 9.181e-8
-0.253, 9.194e-8
-0.252, 9.476e-8
-0.251, 9.535e-8
-0.250, 9.812e-8
-0.249, 9.827e-8
-0.248, 1.013e-7
-0.247, 1.012e-7
-0.246, 1.039e-7
-0.245, 1.043e-7
-0.244, 1.071e-7
-0.243, 1.073e-7
-0.242, 1.103e-7
-0.241, 1.103e-7
-0.240, 1.129e-7
-0.239, 1.131e-7
-0.238, 1.159e-7
-0.237, 1.159e-7
-0.236, 1.188e-7
-0.235, 1.193e-7
-0.234, 1.222e-7
-0.233, 1.222e-7
-0.232, 1.256e-7
-0.231, 1.256e-7
-0.230, 1.285e-7
-0.229, 1.285e-7
-0.228, 1.314e-7
-0.227, 1.315e-7
-0.226, 1.344e-7
-0.225, 1.346e-7
-0.224, 1.371e-7
-0.223, 1.372e-7
-0.222, 1.402e-7
-0.221, 1.401e-7
-0.220, 1.428e-7
-0.219, 1.432e-7
-0.218, 1.459e-7
-0.217, 1.459e-7
-0.216, 1.492e-7
-0.215, 1.491e-7
-0.214, 1.517e-7
-0.213, 1.520e-7
-0.212, 1.550e-7
-0.211, 1.548e-7
-0.210, 1.577e-7
-0.209, 1.578e-7
-0.208, 1.604e-7
-0.207, 1.604e-7
-0.206, 1.632e-7
-0.205, 1.633e-7
-0.204, 1.658e-7
-0.203, 1.661e-7
-0.202, 1.690e-7
-0.201, 1.688e-7
-0.200, 1.721e-7
-0.199, 1.718e-7
-0.198, 1.749e-7
-0.197, 1.751e-7
-0.196, 1.781e-7
-0.195, 1.777e-7
-0.194, 1.809e-7
-0.193, 1.809e-7
-0.192, 1.837e-7
-0.191, 1.837e-7
-0.190, 1.865e-7
-0.189, 1.863e-7
-0.188, 1.889e-7
-0.187, 1.891e-7
-0.186, 1.919e-7
-0.185, 1.918e-7
-0.184, 1.948e-7
-0.183, 1.946e-7
-0.182, 1.973e-7
-0.181, 1.973e-7
-0.180, 2.001e-7
-0.179, 1.999e-7
-0.178, 2.026e-7
-0.177, 2.028e-7
-0.176, 2.054e-7
-0.175, 2.053e-7
-0.174, 2.084e-7
-0.173, 2.083e-7
-0.172, 2.108e-7
-0.171, 2.109e-7
-0.170, 2.133e-7
-0.169, 2.131e-7
-0.168, 2.161e-7
-0.167, 2.159e-7
-0.166, 2.189e-7
-0.165, 2.190e-7
-0.164, 2.218e-7
-0.163, 2.215e-7
-0.162, 2.244e-7
-0.161, 2.244e-7
-0.160, 2.271e-7
-0.159, 2.269e-7
-0.158, 2.301e-7
-0.157, 2.298e-7
-0.156, 2.327e-7
-0.155, 2.328e-7
-0.154, 2.352e-7
-0.153, 2.352e-7
-0.152, 2.380e-7
-0.151, 2.377e-7
-0.150, 2.403e-7
-0.149, 2.404e-7
-0.148, 2.433e-7
-0.147, 2.429e-7
-0.146, 2.459e-7
-0.145, 2.459e-7
-0.144, 2.482e-7
-0.143, 2.482e-7
-0.142, 2.508e-7
-0.141, 2.506e-7
-0.140, 2.530e-7
-0.139, 2.531e-7
-0.138, 2.555e-7
-0.137, 2.551e-7
-0.136, 2.579e-7
-0.135, 2.576e-7
-0.134, 2.600e-7
-0.133, 2.600e-7
-0.132, 2.624e-7
-0.131, 2.619e-7
-0.130, 2.647e-7
-0.129, 2.644e-7
-0.128, 2.670e-7
-0.127, 2.668e-7
-0.126, 2.696e-7
-0.125, 2.692e-7
-0.124, 2.717e-7
-0.123, 2.716e-7
-0.122, 2.739e-7
-0.121, 2.735e-7
-0.120, 2.761e-7
-0.119, 2.759e-7
-0.118, 2.782e-7
-0.117, 2.779e-7
-0.116, 2.805e-7
-0.115, 2.801e-7
-0.114, 2.826e-7
-0.113, 2.824e-7
-0.112, 2.848e-7
-0.111, 2.844e-7
-0.110, 2.870e-7
-0.109, 2.864e-7
-0.108, 2.888e-7
-0.107, 2.886e-7
-0.106, 2.910e-7
-0.105, 2.905e-7
-0.104, 2.932e-7
-0.103, 2.925e-7
-0.102, 2.946e-7
-0.101, 2.946e-7
-0.100, 2.967e-7
-0.099, 2.963e-7
-0.098, 2.985e-7
-0.097, 2.983e-7
-0.096, 3.003e-7
-0.095, 3.000e-7
-0.094, 3.026e-7
-0.093, 3.016e-7
-0.092, 3.041e-7
-0.091, 3.039e-7
-0.090, 3.059e-7
-0.089, 3.055e-7
-0.088, 3.080e-7
-0.087, 3.074e-7
-0.086, 3.095e-7
-0.085, 3.092e-7
-0.084, 3.112e-7
-0.083, 3.107e-7
-0.082, 3.130e-7
-0.081, 3.127e-7
-0.080, 3.149e-7
-0.079, 3.143e-7
-0.078, 3.170e-7
-0.077, 3.164e-7
-0.076, 3.188e-7
-0.075, 3.186e-7
-0.074, 3.205e-7
-0.073, 3.202e-7
-0.072, 3.225e-7
-0.071, 3.221e-7
-0.070, 3.241e-7
-0.069, 3.240e-7
-0.068, 3.262e-7
-0.067, 3.257e-7
-0.066, 3.280e-7
-0.065, 3.276e-7
-0.064, 3.299e-7
-0.063, 3.294e-7
-0.062, 3.320e-7
-0.061, 3.314e-7
-0.060, 3.335e-7
-0.059, 3.334e-7
-0.058, 3.356e-7
-0.057, 3.351e-7
-0.056, 3.379e-7
-0.055, 3.374e-7
-0.054, 3.397e-7
-0.053, 3.395e-7
-0.052, 3.420e-7
-0.051, 3.414e-7
-0.050, 3.437e-7
-0.049, 3.435e-7
-0.048, 3.455e-7
-0.047, 3.451e-7
-0.046, 3.476e-7
-0.045, 3.472e-7
-0.044, 3.492e-7
-0.043, 3.492e-7
-0.042, 3.513e-7
-0.041, 3.508e-7
-0.040, 3.533e-7
-0.039, 3.528e-7
-0.038, 3.550e-7
-0.037, 3.548e-7
-0.036, 3.570e-7
-0.035, 3.563e-7
-0.034, 3.586e-7
-0.033, 3.584e-7
-0.032, 3.603e-7
-0.031, 3.599e-7
-0.030, 3.624e-7
-0.029, 3.619e-7
-0.028, 3.642e-7
-0.027, 3.640e-7
-0.026, 3.662e-7
-0.025, 3.658e-7
-0.024, 3.684e-7
-0.023, 3.678e-7
-0.022, 3.699e-7
-0.021, 3.698e-7
-0.020, 3.718e-7
-0.019, 3.715e-7
-0.018, 3.737e-7
-0.017, 3.734e-7
-0.016, 3.754e-7
-0.015, 3.752e-7
-0.014, 3.777e-7
-0.013, 3.771e-7
-0.012, 3.793e-7
-0.011, 3.792e-7
-0.010, 3.810e-7
-0.009, 3.806e-7
-0.008, 3.830e-7
-0.007, 3.826e-7
-0.006, 3.847e-7
-0.005, 3.843e-7
-0.004, 3.867e-7
-0.003, 3.861e-7
-0.002, 3.887e-7
-0.001, 3.883e-7
-0.000, 3.904e-7
0.001, 3.902e-7
0.002, 3.928e-7
0.003, 3.922e-7
0.004, 3.944e-7
0.005, 3.943e-7
0.006, 3.963e-7
0.007, 3.958e-7
0.008, 3.981e-7
0.009, 3.977e-7
0.010, 3.996e-7
0.011, 3.996e-7
0.012, 4.017e-7
0.013, 4.011e-7
0.014, 4.034e-7
0.015, 4.031e-7
0.016, 4.051e-7
0.017, 4.047e-7
0.018, 4.069e-7
0.019, 4.064e-7
0.020, 4.083e-7
0.021, 4.084e-7
0.022, 4.100e-7
0.023, 4.095e-7
0.024, 4.120e-7
0.025, 4.115e-7
0.026, 4.137e-7
0.027, 4.134e-7
0.028, 4.157e-7
0.029, 4.152e-7
0.030, 4.176e-7
0.031, 4.175e-7
0.032, 4.194e-7
0.033, 4.191e-7
0.034, 4.214e-7
0.035, 4.208e-7
0.036, 4.228e-7
0.037, 4.228e-7
0.038, 4.245e-7
0.039, 4.243e-7
0.040, 4.266e-7
0.041, 4.261e-7
0.042, 4.280e-7
0.043, 4.280e-7
0.044, 4.298e-7
0.045, 4.296e-7
0.046, 4.315e-7
0.047, 4.313e-7
0.048, 4.330e-7
0.049, 4.326e-7
0.050, 4.349e-7
0.051, 4.343e-7
0.052, 4.363e-7
0.053, 4.363e-7
0.054, 4.382e-7
0.055, 4.378e-7
0.056, 4.401e-7
0.057, 4.396e-7
0.058, 4.417e-7
0.059, 4.416e-7
0.060, 4.435e-7
0.061, 4.433e-7
0.062, 4.453e-7
0.063, 4.449e-7
0.064, 4.471e-7
0.065, 4.467e-7
0.066, 4.491e-7
0.067, 4.486e-7
0.068, 4.505e-7
0.069, 4.506e-7
0.070, 4.524e-7
0.071, 4.520e-7
0.072, 4.542e-7
0.073, 4.538e-7
0.074, 4.554e-7
0.075, 4.554e-7
0.076, 4.570e-7
0.077, 4.568e-7
0.078, 4.587e-7
0.079, 4.583e-7
0.080, 4.602e-7
0.081, 4.599e-7
0.082, 4.621e-7
0.083, 4.619e-7
0.084, 4.638e-7
0.085, 4.638e-7
0.086, 4.656e-7
0.087, 4.651e-7
0.088, 4.675e-7
0.089, 4.670e-7
0.090, 4.689e-7
0.091, 4.688e-7
0.092, 4.706e-7
0.093, 4.702e-7
0.094, 4.721e-7
0.095, 4.719e-7
0.096, 4.739e-7
0.097, 4.736e-7
0.098, 4.759e-7
0.099, 4.753e-7
0.100, 4.770e-7
0.101, 4.773e-7
0.102, 4.786e-7
0.103, 4.782e-7
0.104, 4.806e-7
0.105, 4.802e-7
0.106, 4.818e-7
0.107, 4.817e-7
0.108, 4.835e-7
0.109, 4.832e-7
0.110, 4.853e-7
0.111, 4.851e-7
0.112, 4.868e-7
0.113, 4.865e-7
0.114, 4.889e-7
0.115, 4.882e-7
0.116, 4.901e-7
0.117, 4.903e-7
0.118, 4.919e-7
0.119, 4.915e-7
0.120, 4.937e-7
0.121, 4.932e-7
0.122, 4.951e-7
0.123, 4.951e-7
0.124, 4.969e-7
0.125, 4.965e-7
0.126, 4.986e-7
0.127, 4.984e-7
0.128, 5.002e-7
0.129, 5.000e-7
0.130, 5.022e-7
0.131, 5.017e-7
0.132, 5.034e-7
0.133, 5.034e-7
0.134, 5.049e-7
0.135, 5.047e-7
0.136, 5.067e-7
0.137, 5.062e-7
0.138, 5.078e-7
0.139, 5.076e-7
0.140, 5.095e-7
0.141, 5.094e-7
0.142, 5.113e-7
0.143, 5.110e-7
0.144, 5.128e-7
0.145, 5.125e-7
0.146, 5.148e-7
0.147, 5.143e-7
0.148, 5.161e-7
0.149, 5.161e-7
0.150, 5.178e-7
0.151, 5.175e-7
0.152, 5.194e-7
0.153, 5.191e-7
0.154, 5.207e-7
0.155, 5.205e-7
0.156, 5.223e-7
0.157, 5.220e-7
0.158, 5.240e-7
0.159, 5.238e-7
0.160, 5.254e-7
0.161, 5.251e-7
0.162, 5.272e-7
0.163, 5.267e-7
0.164, 5.284e-7
0.165, 5.285e-7
0.166, 5.301e-7
0.167, 5.299e-7
0.168, 5.319e-7
0.169, 5.314e-7
0.170, 5.332e-7
0.171, 5.330e-7
0.172, 5.348e-7
0.173, 5.346e-7
0.174, 5.366e-7
0.175, 5.364e-7
0.176, 5.380e-7
0.177, 5.377e-7
0.178, 5.400e-7
0.179, 5.393e-7
0.180, 5.411e-7
0.181, 5.412e-7
0.182, 5.425e-7
0.183, 5.424e-7
0.184, 5.443e-7
0.185, 5.440e-7
0.186, 5.457e-7
0.187, 5.457e-7
0.188, 5.474e-7
0.189, 5.468e-7
0.190, 5.490e-7
0.191, 5.490e-7
0.192, 5.507e-7
0.193, 5.504e-7
0.194, 5.526e-7
0.195, 5.520e-7
0.196, 5.536e-7
0.197, 5.539e-7
0.198, 5.554e-7
0.199, 5.550e-7