File: data/raw_data/electrochemistry/20170904_Gr-NH2_prod_for_Radisurf/30 min cv blank.txt
Sept. 4, 2017   11:10:01
Cyclic Voltammetry
File: 30 min cv blank
Data Source:  Experiment
Instrument Model:  CHI601D
Header:
Note:

Init E (V) = 0.2
High E (V) = 0.2
Low E (V) = -1
Final E (V) = 0.2
Init P/N = N
Scan Rate (V/s) = 0.1
Segment = 2
Sample Interval (V) = 0.001
Quiet Time (sec) = 2
Sensitivity (A/V) = 1e-5

Potential/V, Current/A

Segment 1:
0.200, -1.406e-8
0.199, -1.565e-8
0.198, -1.672e-8
0.197, -1.730e-8
0.196, -1.792e-8
0.195, -1.834e-8
0.194, -1.886e-8
0.193, -1.922e-8
0.192, -1.967e-8
0.191, -2.003e-8
0.190, -2.049e-8
0.189, -2.071e-8
0.188, -2.107e-8
0.187, -2.152e-8
0.186, -2.184e-8
0.185, -2.215e-8
0.184, -2.254e-8
0.183, -2.286e-8
0.182, -2.324e-8
0.181, -2.355e-8
0.180, -2.397e-8
0.179, -2.423e-8
0.178, -2.464e-8
0.177, -2.493e-8
0.176, -2.534e-8
0.175, -2.559e-8
0.174, -2.612e-8
0.173, -2.642e-8
0.172, -2.675e-8
0.171, -2.716e-8
0.170, -2.752e-8
0.169, -2.785e-8
0.168, -2.842e-8
0.167, -2.867e-8
0.166, -2.901e-8
0.165, -2.934e-8
0.164, -2.982e-8
0.163, -3.003e-8
0.162, -3.044e-8
0.161, -3.078e-8
0.160, -3.114e-8
0.159, -3.130e-8
0.158, -3.175e-8
0.157, -3.193e-8
0.156, -3.225e-8
0.155, -3.253e-8
0.154, -3.292e-8
0.153, -3.310e-8
0.152, -3.356e-8
0.151, -3.374e-8
0.150, -3.408e-8
0.149, -3.441e-8
0.148, -3.475e-8
0.147, -3.500e-8
0.146, -3.533e-8
0.145, -3.566e-8
0.144, -3.600e-8
0.143, -3.628e-8
0.142, -3.666e-8
0.141, -3.688e-8
0.140, -3.739e-8
0.139, -3.775e-8
0.138, -3.808e-8
0.137, -3.840e-8
0.136, -3.892e-8
0.135, -3.915e-8
0.134, -3.958e-8
0.133, -3.991e-8
0.132, -4.046e-8
0.131, -4.063e-8
0.130, -4.125e-8
0.129, -4.155e-8
0.128, -4.203e-8
0.127, -4.226e-8
0.126, -4.280e-8
0.125, -4.314e-8
0.124, -4.362e-8
0.123, -4.395e-8
0.122, -4.446e-8
0.121, -4.465e-8
0.120, -4.520e-8
0.119, -4.542e-8
0.118, -4.588e-8
0.117, -4.620e-8
0.116, -4.668e-8
0.115, -4.703e-8
0.114, -4.743e-8
0.113, -4.768e-8
0.112, -4.827e-8
0.111, -4.854e-8
0.110, -4.901e-8
0.109, -4.933e-8
0.108, -4.986e-8
0.107, -5.013e-8
0.106, -5.063e-8
0.105, -5.099e-8
0.104, -5.163e-8
0.103, -5.184e-8
0.102, -5.240e-8
0.101, -5.277e-8
0.100, -5.336e-8
0.099, -5.357e-8
0.098, -5.428e-8
0.097, -5.457e-8
0.096, -5.518e-8
0.095, -5.540e-8
0.094, -5.607e-8
0.093, -5.631e-8
0.092, -5.688e-8
0.091, -5.717e-8
0.090, -5.770e-8
0.089, -5.805e-8
0.088, -5.858e-8
0.087, -5.884e-8
0.086, -5.940e-8
0.085, -5.966e-8
0.084, -6.027e-8
0.083, -6.061e-8
0.082, -6.113e-8
0.081, -6.153e-8
0.080, -6.211e-8
0.079, -6.233e-8
0.078, -6.307e-8
0.077, -6.328e-8
0.076, -6.384e-8
0.075, -6.415e-8
0.074, -6.485e-8
0.073, -6.506e-8
0.072, -6.590e-8
0.071, -6.609e-8
0.070, -6.681e-8
0.069, -6.706e-8
0.068, -6.774e-8
0.067, -6.807e-8
0.066, -6.870e-8
0.065, -6.898e-8
0.064, -6.961e-8
0.063, -6.999e-8
0.062, -7.075e-8
0.061, -7.095e-8
0.060, -7.156e-8
0.059, -7.192e-8
0.058, -7.257e-8
0.057, -7.296e-8
0.056, -7.368e-8
0.055, -7.402e-8
0.054, -7.493e-8
0.053, -7.521e-8
0.052, -7.604e-8
0.051, -7.643e-8
0.050, -7.714e-8
0.049, -7.761e-8
0.048, -7.833e-8
0.047, -7.879e-8
0.046, -7.956e-8
0.045, -7.978e-8
0.044, -8.061e-8
0.043, -8.094e-8
0.042, -8.156e-8
0.041, -8.182e-8
0.040, -8.261e-8
0.039, -8.284e-8
0.038, -8.357e-8
0.037, -8.379e-8
0.036, -8.458e-8
0.035, -8.482e-8
0.034, -8.569e-8
0.033, -8.611e-8
0.032, -8.681e-8
0.031, -8.715e-8
0.030, -8.808e-8
0.029, -8.842e-8
0.028, -8.923e-8
0.027, -8.973e-8
0.026, -9.048e-8
0.025, -9.096e-8
0.024, -9.189e-8
0.023, -9.222e-8
0.022, -9.313e-8
0.021, -9.357e-8
0.020, -9.438e-8
0.019, -9.472e-8
0.018, -9.573e-8
0.017, -9.618e-8
0.016, -9.702e-8
0.015, -9.739e-8
0.014, -9.833e-8
0.013, -9.871e-8
0.012, -9.949e-8
0.011, -1.001e-7
0.010, -1.010e-7
0.009, -1.014e-7
0.008, -1.024e-7
0.007, -1.028e-7
0.006, -1.037e-7
0.005, -1.042e-7
0.004, -1.051e-7
0.003, -1.056e-7
0.002, -1.063e-7
0.001, -1.068e-7
-0.000, -1.076e-7
-0.001, -1.080e-7
-0.002, -1.089e-7
-0.003, -1.094e-7
-0.004, -1.103e-7
-0.005, -1.108e-7
-0.006, -1.116e-7
-0.007, -1.121e-7
-0.008, -1.132e-7
-0.009, -1.135e-7
-0.010, -1.146e-7
-0.011, -1.150e-7
-0.012, -1.160e-7
-0.013, -1.165e-7
-0.014, -1.176e-7
-0.015, -1.181e-7
-0.016, -1.190e-7
-0.017, -1.194e-7
-0.018, -1.207e-7
-0.019, -1.211e-7
-0.020, -1.220e-7
-0.021, -1.227e-7
-0.022, -1.237e-7
-0.023, -1.242e-7
-0.024, -1.255e-7
-0.025, -1.258e-7
-0.026, -1.269e-7
-0.027, -1.275e-7
-0.028, -1.287e-7
-0.029, -1.290e-7
-0.030, -1.300e-7
-0.031, -1.305e-7
-0.032, -1.315e-7
-0.033, -1.319e-7
-0.034, -1.329e-7
-0.035, -1.333e-7
-0.036, -1.343e-7
-0.037, -1.350e-7
-0.038, -1.359e-7
-0.039, -1.366e-7
-0.040, -1.377e-7
-0.041, -1.382e-7
-0.042, -1.393e-7
-0.043, -1.399e-7
-0.044, -1.411e-7
-0.045, -1.416e-7
-0.046, -1.428e-7
-0.047, -1.432e-7
-0.048, -1.444e-7
-0.049, -1.449e-7
-0.050, -1.462e-7
-0.051, -1.467e-7
-0.052, -1.480e-7
-0.053, -1.487e-7
-0.054, -1.498e-7
-0.055, -1.505e-7
-0.056, -1.519e-7
-0.057, -1.524e-7
-0.058, -1.535e-7
-0.059, -1.542e-7
-0.060, -1.553e-7
-0.061, -1.559e-7
-0.062, -1.570e-7
-0.063, -1.575e-7
-0.064, -1.586e-7
-0.065, -1.592e-7
-0.066, -1.604e-7
-0.067, -1.611e-7
-0.068, -1.623e-7
-0.069, -1.630e-7
-0.070, -1.642e-7
-0.071, -1.648e-7
-0.072, -1.661e-7
-0.073, -1.667e-7
-0.074, -1.680e-7
-0.075, -1.685e-7
-0.076, -1.699e-7
-0.077, -1.705e-7
-0.078, -1.719e-7
-0.079, -1.726e-7
-0.080, -1.740e-7
-0.081, -1.748e-7
-0.082, -1.764e-7
-0.083, -1.770e-7
-0.084, -1.783e-7
-0.085, -1.790e-7
-0.086, -1.802e-7
-0.087, -1.807e-7
-0.088, -1.820e-7
-0.089, -1.826e-7
-0.090, -1.838e-7
-0.091, -1.846e-7
-0.092, -1.860e-7
-0.093, -1.866e-7
-0.094, -1.881e-7
-0.095, -1.888e-7
-0.096, -1.901e-7
-0.097, -1.908e-7
-0.098, -1.922e-7
-0.099, -1.929e-7
-0.100, -1.942e-7
-0.101, -1.950e-7
-0.102, -1.964e-7
-0.103, -1.971e-7
-0.104, -1.988e-7
-0.105, -1.996e-7
-0.106, -2.012e-7
-0.107, -2.020e-7
-0.108, -2.036e-7
-0.109, -2.043e-7
-0.110, -2.058e-7
-0.111, -2.065e-7
-0.112, -2.078e-7
-0.113, -2.086e-7
-0.114, -2.102e-7
-0.115, -2.110e-7
-0.116, -2.124e-7
-0.117, -2.133e-7
-0.118, -2.147e-7
-0.119, -2.155e-7
-0.120, -2.170e-7
-0.121, -2.179e-7
-0.122, -2.193e-7
-0.123, -2.202e-7
-0.124, -2.218e-7
-0.125, -2.227e-7
-0.126, -2.243e-7
-0.127, -2.253e-7
-0.128, -2.269e-7
-0.129, -2.278e-7
-0.130, -2.292e-7
-0.131, -2.299e-7
-0.132, -2.313e-7
-0.133, -2.321e-7
-0.134, -2.337e-7
-0.135, -2.345e-7
-0.136, -2.363e-7
-0.137, -2.371e-7
-0.138, -2.387e-7
-0.139, -2.395e-7
-0.140, -2.412e-7
-0.141, -2.420e-7
-0.142, -2.436e-7
-0.143, -2.446e-7
-0.144, -2.460e-7
-0.145, -2.472e-7
-0.146, -2.491e-7
-0.147, -2.501e-7
-0.148, -2.519e-7
-0.149, -2.530e-7
-0.150, -2.545e-7
-0.151, -2.555e-7
-0.152, -2.572e-7
-0.153, -2.582e-7
-0.154, -2.598e-7
-0.155, -2.609e-7
-0.156, -2.627e-7
-0.157, -2.635e-7
-0.158, -2.653e-7
-0.159, -2.663e-7
-0.160, -2.679e-7
-0.161, -2.689e-7
-0.162, -2.710e-7
-0.163, -2.719e-7
-0.164, -2.738e-7
-0.165, -2.750e-7
-0.166, -2.768e-7
-0.167, -2.777e-7
-0.168, -2.794e-7
-0.169, -2.803e-7
-0.170, -2.821e-7
-0.171, -2.831e-7
-0.172, -2.851e-7
-0.173, -2.860e-7
-0.174, -2.880e-7
-0.175, -2.890e-7
-0.176, -2.906e-7
-0.177, -2.918e-7
-0.178, -2.936e-7
-0.179, -2.947e-7
-0.180, -2.965e-7
-0.181, -2.979e-7
-0.182, -2.998e-7
-0.183, -3.009e-7
-0.184, -3.029e-7
-0.185, -3.041e-7
-0.186, -3.060e-7
-0.187, -3.071e-7
-0.188, -3.092e-7
-0.189, -3.104e-7
-0.190, -3.123e-7
-0.191, -3.134e-7
-0.192, -3.153e-7
-0.193, -3.164e-7
-0.194, -3.185e-7
-0.195, -3.197e-7
-0.196, -3.218e-7
-0.197, -3.230e-7
-0.198, -3.252e-7
-0.199, -3.264e-7
-0.200, -3.284e-7
-0.201, -3.294e-7
-0.202, -3.314e-7
-0.203, -3.326e-7
-0.204, -3.345e-7
-0.205, -3.357e-7
-0.206, -3.376e-7
-0.207, -3.388e-7
-0.208, -3.407e-7
-0.209, -3.419e-7
-0.210, -3.443e-7
-0.211, -3.457e-7
-0.212, -3.479e-7
-0.213, -3.493e-7
-0.214, -3.515e-7
-0.215, -3.527e-7
-0.216, -3.548e-7
-0.217, -3.560e-7
-0.218, -3.582e-7
-0.219, -3.596e-7
-0.220, -3.617e-7
-0.221, -3.628e-7
-0.222, -3.650e-7
-0.223, -3.662e-7
-0.224, -3.685e-7
-0.225, -3.700e-7
-0.226, -3.725e-7
-0.227, -3.737e-7
-0.228, -3.759e-7
-0.229, -3.773e-7
-0.230, -3.792e-7
-0.231, -3.804e-7
-0.232, -3.828e-7
-0.233, -3.840e-7
-0.234, -3.863e-7
-0.235, -3.877e-7
-0.236, -3.900e-7
-0.237, -3.913e-7
-0.238, -3.936e-7
-0.239, -3.951e-7
-0.240, -3.976e-7
-0.241, -3.989e-7
-0.242, -4.014e-7
-0.243, -4.028e-7
-0.244, -4.053e-7
-0.245, -4.068e-7
-0.246, -4.093e-7
-0.247, -4.106e-7
-0.248, -4.130e-7
-0.249, -4.144e-7
-0.250, -4.169e-7
-0.251, -4.185e-7
-0.252, -4.211e-7
-0.253, -4.227e-7
-0.254, -4.249e-7
-0.255, -4.263e-7
-0.256, -4.286e-7
-0.257, -4.302e-7
-0.258, -4.328e-7
-0.259, -4.342e-7
-0.260, -4.367e-7
-0.261, -4.382e-7
-0.262, -4.407e-7
-0.263, -4.423e-7
-0.264, -4.449e-7
-0.265, -4.465e-7
-0.266, -4.491e-7
-0.267, -4.505e-7
-0.268, -4.530e-7
-0.269, -4.547e-7
-0.270, -4.575e-7
-0.271, -4.591e-7
-0.272, -4.616e-7
-0.273, -4.631e-7
-0.274, -4.659e-7
-0.275, -4.675e-7
-0.276, -4.704e-7
-0.277, -4.721e-7
-0.278, -4.745e-7
-0.279, -4.759e-7
-0.280, -4.785e-7
-0.281, -4.801e-7
-0.282, -4.826e-7
-0.283, -4.843e-7
-0.284, -4.868e-7
-0.285, -4.884e-7
-0.286, -4.911e-7
-0.287, -4.929e-7
-0.288, -4.958e-7
-0.289, -4.973e-7
-0.290, -5.001e-7
-0.291, -5.016e-7
-0.292, -5.043e-7
-0.293, -5.063e-7
-0.294, -5.094e-7
-0.295, -5.110e-7
-0.296, -5.138e-7
-0.297, -5.156e-7
-0.298, -5.185e-7
-0.299, -5.205e-7
-0.300, -5.232e-7
-0.301, -5.248e-7
-0.302, -5.274e-7
-0.303, -5.291e-7
-0.304, -5.321e-7
-0.305, -5.340e-7
-0.306, -5.368e-7
-0.307, -5.386e-7
-0.308, -5.413e-7
-0.309, -5.433e-7
-0.310, -5.461e-7
-0.311, -5.479e-7
-0.312, -5.506e-7
-0.313, -5.524e-7
-0.314, -5.553e-7
-0.315, -5.573e-7
-0.316, -5.603e-7
-0.317, -5.622e-7
-0.318, -5.655e-7
-0.319, -5.677e-7
-0.320, -5.707e-7
-0.321, -5.725e-7
-0.322, -5.751e-7
-0.323, -5.770e-7
-0.324, -5.800e-7
-0.325, -5.821e-7
-0.326, -5.849e-7
-0.327, -5.869e-7
-0.328, -5.900e-7
-0.329, -5.924e-7
-0.330, -5.954e-7
-0.331, -5.973e-7
-0.332, -6.002e-7
-0.333, -6.022e-7
-0.334, -6.052e-7
-0.335, -6.073e-7
-0.336, -6.103e-7
-0.337, -6.125e-7
-0.338, -6.162e-7
-0.339, -6.185e-7
-0.340, -6.214e-7
-0.341, -6.233e-7
-0.342, -6.263e-7
-0.343, -6.283e-7
-0.344, -6.316e-7
-0.345, -6.337e-7
-0.346, -6.367e-7
-0.347, -6.389e-7
-0.348, -6.424e-7
-0.349, -6.445e-7
-0.350, -6.474e-7
-0.351, -6.495e-7
-0.352, -6.527e-7
-0.353, -6.548e-7
-0.354, -6.580e-7
-0.355, -6.602e-7
-0.356, -6.636e-7
-0.357, -6.663e-7
-0.358, -6.696e-7
-0.359, -6.718e-7
-0.360, -6.749e-7
-0.361, -6.772e-7
-0.362, -6.806e-7
-0.363, -6.827e-7
-0.364, -6.859e-7
-0.365, -6.882e-7
-0.366, -6.917e-7
-0.367, -6.941e-7
-0.368, -6.973e-7
-0.369, -6.997e-7
-0.370, -7.032e-7
-0.371, -7.055e-7
-0.372, -7.087e-7
-0.373, -7.111e-7
-0.374, -7.148e-7
-0.375, -7.172e-7
-0.376, -7.207e-7
-0.377, -7.230e-7
-0.378, -7.266e-7
-0.379, -7.289e-7
-0.380, -7.323e-7
-0.381, -7.344e-7
-0.382, -7.380e-7
-0.383, -7.405e-7
-0.384, -7.438e-7
-0.385, -7.460e-7
-0.386, -7.495e-7
-0.387, -7.521e-7
-0.388, -7.557e-7
-0.389, -7.583e-7
-0.390, -7.620e-7
-0.391, -7.645e-7
-0.392, -7.682e-7
-0.393, -7.703e-7
-0.394, -7.736e-7
-0.395, -7.764e-7
-0.396, -7.802e-7
-0.397, -7.827e-7
-0.398, -7.866e-7
-0.399, -7.894e-7
-0.400, -7.929e-7
-0.401, -7.953e-7
-0.402, -7.989e-7
-0.403, -8.016e-7
-0.404, -8.050e-7
-0.405, -8.077e-7
-0.406, -8.117e-7
-0.407, -8.143e-7
-0.408, -8.177e-7
-0.409, -8.202e-7
-0.410, -8.237e-7
-0.411, -8.263e-7
-0.412, -8.302e-7
-0.413, -8.330e-7
-0.414, -8.371e-7
-0.415, -8.400e-7
-0.416, -8.435e-7
-0.417, -8.460e-7
-0.418, -8.500e-7
-0.419, -8.526e-7
-0.420, -8.565e-7
-0.421, -8.596e-7
-0.422, -8.637e-7
-0.423, -8.662e-7
-0.424, -8.699e-7
-0.425, -8.726e-7
-0.426, -8.765e-7
-0.427, -8.791e-7
-0.428, -8.832e-7
-0.429, -8.863e-7
-0.430, -8.905e-7
-0.431, -8.931e-7
-0.432, -8.968e-7
-0.433, -8.995e-7
-0.434, -9.034e-7
-0.435, -9.064e-7
-0.436, -9.106e-7
-0.437, -9.137e-7
-0.438, -9.172e-7
-0.439, -9.200e-7
-0.440, -9.239e-7
-0.441, -9.270e-7
-0.442, -9.308e-7
-0.443, -9.338e-7
-0.444, -9.382e-7
-0.445, -9.412e-7
-0.446, -9.452e-7
-0.447, -9.483e-7
-0.448, -9.524e-7
-0.449, -9.553e-7
-0.450, -9.598e-7
-0.451, -9.628e-7
-0.452, -9.665e-7
-0.453, -9.694e-7
-0.454, -9.734e-7
-0.455, -9.766e-7
-0.456, -9.806e-7
-0.457, -9.836e-7
-0.458, -9.880e-7
-0.459, -9.910e-7
-0.460, -9.953e-7
-0.461, -9.983e-7
-0.462, -1.002e-6
-0.463, -1.006e-6
-0.464, -1.010e-6
-0.465, -1.013e-6
-0.466, -1.017e-6
-0.467, -1.020e-6
-0.468, -1.025e-6
-0.469, -1.028e-6
-0.470, -1.032e-6
-0.471, -1.035e-6
-0.472, -1.040e-6
-0.473, -1.043e-6
-0.474, -1.047e-6
-0.475, -1.051e-6
-0.476, -1.055e-6
-0.477, -1.058e-6
-0.478, -1.063e-6
-0.479, -1.066e-6
-0.480, -1.070e-6
-0.481, -1.073e-6
-0.482, -1.077e-6
-0.483, -1.081e-6
-0.484, -1.085e-6
-0.485, -1.088e-6
-0.486, -1.093e-6
-0.487, -1.096e-6
-0.488, -1.101e-6
-0.489, -1.104e-6
-0.490, -1.109e-6
-0.491, -1.112e-6
-0.492, -1.116e-6
-0.493, -1.119e-6
-0.494, -1.124e-6
-0.495, -1.127e-6
-0.496, -1.132e-6
-0.497, -1.135e-6
-0.498, -1.140e-6
-0.499, -1.143e-6
-0.500, -1.147e-6
-0.501, -1.151e-6
-0.502, -1.156e-6
-0.503, -1.160e-6
-0.504, -1.164e-6
-0.505, -1.167e-6
-0.506, -1.172e-6
-0.507, -1.175e-6
-0.508, -1.180e-6
-0.509, -1.183e-6
-0.510, -1.188e-6
-0.511, -1.192e-6
-0.512, -1.196e-6
-0.513, -1.199e-6
-0.514, -1.204e-6
-0.515, -1.208e-6
-0.516, -1.212e-6
-0.517, -1.216e-6
-0.518, -1.221e-6
-0.519, -1.224e-6
-0.520, -1.229e-6
-0.521, -1.233e-6
-0.522, -1.237e-6
-0.523, -1.241e-6
-0.524, -1.246e-6
-0.525, -1.249e-6
-0.526, -1.254e-6
-0.527, -1.258e-6
-0.528, -1.262e-6
-0.529, -1.266e-6
-0.530, -1.271e-6
-0.531, -1.275e-6
-0.532, -1.279e-6
-0.533, -1.283e-6
-0.534, -1.288e-6
-0.535, -1.292e-6
-0.536, -1.296e-6
-0.537, -1.300e-6
-0.538, -1.305e-6
-0.539, -1.309e-6
-0.540, -1.313e-6
-0.541, -1.318e-6
-0.542, -1.322e-6
-0.543, -1.326e-6
-0.544, -1.331e-6
-0.545, -1.335e-6
-0.546, -1.340e-6
-0.547, -1.343e-6
-0.548, -1.348e-6
-0.549, -1.353e-6
-0.550, -1.357e-6
-0.551, -1.361e-6
-0.552, -1.366e-6
-0.553, -1.370e-6
-0.554, -1.375e-6
-0.555, -1.379e-6
-0.556, -1.384e-6
-0.557, -1.387e-6
-0.558, -1.393e-6
-0.559, -1.396e-6
-0.560, -1.402e-6
-0.561, -1.405e-6
-0.562, -1.410e-6
-0.563, -1.414e-6
-0.564, -1.419e-6
-0.565, -1.423e-6
-0.566, -1.429e-6
-0.567, -1.432e-6
-0.568, -1.437e-6
-0.569, -1.441e-6
-0.570, -1.446e-6
-0.571, -1.451e-6
-0.572, -1.456e-6
-0.573, -1.460e-6
-0.574, -1.465e-6
-0.575, -1.469e-6
-0.576, -1.474e-6
-0.577, -1.478e-6
-0.578, -1.483e-6
-0.579, -1.487e-6
-0.580, -1.492e-6
-0.581, -1.497e-6
-0.582, -1.502e-6
-0.583, -1.506e-6
-0.584, -1.511e-6
-0.585, -1.515e-6
-0.586, -1.520e-6
-0.587, -1.524e-6
-0.588, -1.529e-6
-0.589, -1.533e-6
-0.590, -1.539e-6
-0.591, -1.543e-6
-0.592, -1.548e-6
-0.593, -1.553e-6
-0.594, -1.558e-6
-0.595, -1.562e-6
-0.596, -1.567e-6
-0.597, -1.571e-6
-0.598, -1.577e-6
-0.599, -1.581e-6
-0.600, -1.586e-6
-0.601, -1.591e-6
-0.602, -1.596e-6
-0.603, -1.600e-6
-0.604, -1.605e-6
-0.605, -1.609e-6
-0.606, -1.615e-6
-0.607, -1.619e-6
-0.608, -1.625e-6
-0.609, -1.629e-6
-0.610, -1.634e-6
-0.611, -1.639e-6
-0.612, -1.644e-6
-0.613, -1.649e-6
-0.614, -1.654e-6
-0.615, -1.658e-6
-0.616, -1.663e-6
-0.617, -1.668e-6
-0.618, -1.673e-6
-0.619, -1.677e-6
-0.620, -1.683e-6
-0.621, -1.687e-6
-0.622, -1.693e-6
-0.623, -1.698e-6
-0.624, -1.703e-6
-0.625, -1.707e-6
-0.626, -1.713e-6
-0.627, -1.717e-6
-0.628, -1.723e-6
-0.629, -1.727e-6
-0.630, -1.732e-6
-0.631, -1.737e-6
-0.632, -1.743e-6
-0.633, -1.747e-6
-0.634, -1.753e-6
-0.635, -1.757e-6
-0.636, -1.763e-6
-0.637, -1.767e-6
-0.638, -1.773e-6
-0.639, -1.777e-6
-0.640, -1.783e-6
-0.641, -1.787e-6
-0.642, -1.793e-6
-0.643, -1.797e-6
-0.644, -1.803e-6
-0.645, -1.807e-6
-0.646, -1.813e-6
-0.647, -1.818e-6
-0.648, -1.823e-6
-0.649, -1.828e-6
-0.650, -1.833e-6
-0.651, -1.838e-6
-0.652, -1.844e-6
-0.653, -1.848e-6
-0.654, -1.854e-6
-0.655, -1.859e-6
-0.656, -1.864e-6
-0.657, -1.869e-6
-0.658, -1.874e-6
-0.659, -1.879e-6
-0.660, -1.885e-6
-0.661, -1.889e-6
-0.662, -1.895e-6
-0.663, -1.900e-6
-0.664, -1.906e-6
-0.665, -1.910e-6
-0.666, -1.916e-6
-0.667, -1.921e-6
-0.668, -1.927e-6
-0.669, -1.932e-6
-0.670, -1.937e-6
-0.671, -1.942e-6
-0.672, -1.948e-6
-0.673, -1.952e-6
-0.674, -1.958e-6
-0.675, -1.963e-6
-0.676, -1.969e-6
-0.677, -1.974e-6
-0.678, -1.979e-6
-0.679, -1.984e-6
-0.680, -1.990e-6
-0.681, -1.995e-6
-0.682, -2.001e-6
-0.683, -2.005e-6
-0.684, -2.011e-6
-0.685, -2.016e-6
-0.686, -2.022e-6
-0.687, -2.027e-6
-0.688, -2.033e-6
-0.689, -2.038e-6
-0.690, -2.044e-6
-0.691, -2.048e-6
-0.692, -2.054e-6
-0.693, -2.058e-6
-0.694, -2.064e-6
-0.695, -2.069e-6
-0.696, -2.075e-6
-0.697, -2.080e-6
-0.698, -2.086e-6
-0.699, -2.091e-6
-0.700, -2.097e-6
-0.701, -2.102e-6
-0.702, -2.107e-6
-0.703, -2.112e-6
-0.704, -2.118e-6
-0.705, -2.123e-6
-0.706, -2.129e-6
-0.707, -2.134e-6
-0.708, -2.140e-6
-0.709, -2.145e-6
-0.710, -2.151e-6
-0.711, -2.155e-6
-0.712, -2.161e-6
-0.713, -2.166e-6
-0.714, -2.172e-6
-0.715, -2.177e-6
-0.716, -2.183e-6
-0.717, -2.188e-6
-0.718, -2.193e-6
-0.719, -2.199e-6
-0.720, -2.204e-6
-0.721, -2.210e-6
-0.722, -2.216e-6
-0.723, -2.221e-6
-0.724, -2.226e-6
-0.725, -2.232e-6
-0.726, -2.238e-6
-0.727, -2.243e-6
-0.728, -2.249e-6
-0.729, -2.254e-6
-0.730, -2.260e-6
-0.731, -2.265e-6
-0.732, -2.271e-6
-0.733, -2.276e-6
-0.734, -2.282e-6
-0.735, -2.287e-6
-0.736, -2.293e-6
-0.737, -2.298e-6
-0.738, -2.304e-6
-0.739, -2.309e-6
-0.740, -2.315e-6
-0.741, -2.320e-6
-0.742, -2.326e-6
-0.743, -2.331e-6
-0.744, -2.337e-6
-0.745, -2.341e-6
-0.746, -2.348e-6
-0.747, -2.353e-6
-0.748, -2.359e-6
-0.749, -2.364e-6
-0.750, -2.370e-6
-0.751, -2.375e-6
-0.752, -2.381e-6
-0.753, -2.386e-6
-0.754, -2.392e-6
-0.755, -2.397e-6
-0.756, -2.403e-6
-0.757, -2.409e-6
-0.758, -2.414e-6
-0.759, -2.419e-6
-0.760, -2.426e-6
-0.761, -2.431e-6
-0.762, -2.437e-6
-0.763, -2.442e-6
-0.764, -2.448e-6
-0.765, -2.453e-6
-0.766, -2.459e-6
-0.767, -2.464e-6
-0.768, -2.470e-6
-0.769, -2.475e-6
-0.770, -2.482e-6
-0.771, -2.487e-6
-0.772, -2.493e-6
-0.773, -2.498e-6
-0.774, -2.504e-6
-0.775, -2.509e-6
-0.776, -2.516e-6
-0.777, -2.521e-6
-0.778, -2.527e-6
-0.779, -2.532e-6
-0.780, -2.538e-6
-0.781, -2.542e-6
-0.782, -2.549e-6
-0.783, -2.554e-6
-0.784, -2.560e-6
-0.785, -2.565e-6
-0.786, -2.572e-6
-0.787, -2.577e-6
-0.788, -2.583e-6
-0.789, -2.588e-6
-0.790, -2.594e-6
-0.791, -2.598e-6
-0.792, -2.605e-6
-0.793, -2.610e-6
-0.794, -2.617e-6
-0.795, -2.621e-6
-0.796, -2.628e-6
-0.797, -2.633e-6
-0.798, -2.638e-6
-0.799, -2.644e-6
-0.800, -2.650e-6
-0.801, -2.655e-6
-0.802, -2.661e-6
-0.803, -2.666e-6
-0.804, -2.672e-6
-0.805, -2.678e-6
-0.806, -2.684e-6
-0.807, -2.689e-6
-0.808, -2.695e-6
-0.809, -2.700e-6
-0.810, -2.706e-6
-0.811, -2.711e-6
-0.812, -2.717e-6
-0.813, -2.723e-6
-0.814, -2.729e-6
-0.815, -2.734e-6
-0.816, -2.740e-6
-0.817, -2.745e-6
-0.818, -2.752e-6
-0.819, -2.757e-6
-0.820, -2.763e-6
-0.821, -2.768e-6
-0.822, -2.775e-6
-0.823, -2.779e-6
-0.824, -2.786e-6
-0.825, -2.791e-6
-0.826, -2.797e-6
-0.827, -2.802e-6
-0.828, -2.808e-6
-0.829, -2.813e-6
-0.830, -2.819e-6
-0.831, -2.824e-6
-0.832, -2.831e-6
-0.833, -2.836e-6
-0.834, -2.842e-6
-0.835, -2.847e-6
-0.836, -2.853e-6
-0.837, -2.858e-6
-0.838, -2.864e-6
-0.839, -2.869e-6
-0.840, -2.875e-6
-0.841, -2.881e-6
-0.842, -2.886e-6
-0.843, -2.891e-6
-0.844, -2.897e-6
-0.845, -2.902e-6
-0.846, -2.908e-6
-0.847, -2.914e-6
-0.848, -2.920e-6
-0.849, -2.925e-6
-0.850, -2.931e-6
-0.851, -2.936e-6
-0.852, -2.942e-6
-0.853, -2.948e-6
-0.854, -2.953e-6
-0.855, -2.958e-6
-0.856, -2.964e-6
-0.857, -2.969e-6
-0.858, -2.975e-6
-0.859, -2.980e-6
-0.860, -2.986e-6
-0.861, -2.991e-6
-0.862, -2.998e-6
-0.863, -3.002e-6
-0.864, -3.008e-6
-0.865, -3.014e-6
-0.866, -3.020e-6
-0.867, -3.025e-6
-0.868, -3.030e-6
-0.869, -3.036e-6
-0.870, -3.042e-6
-0.871, -3.047e-6
-0.872, -3.053e-6
-0.873, -3.058e-6
-0.874, -3.064e-6
-0.875, -3.070e-6
-0.876, -3.075e-6
-0.877, -3.080e-6
-0.878, -3.086e-6
-0.879, -3.091e-6
-0.880, -3.097e-6
-0.881, -3.102e-6
-0.882, -3.108e-6
-0.883, -3.113e-6
-0.884, -3.119e-6
-0.885, -3.124e-6
-0.886, -3.130e-6
-0.887, -3.134e-6
-0.888, -3.141e-6
-0.889, -3.146e-6
-0.890, -3.152e-6
-0.891, -3.157e-6
-0.892, -3.163e-6
-0.893, -3.168e-6
-0.894, -3.174e-6
-0.895, -3.179e-6
-0.896, -3.185e-6
-0.897, -3.189e-6
-0.898, -3.196e-6
-0.899, -3.201e-6
-0.900, -3.207e-6
-0.901, -3.212e-6
-0.902, -3.218e-6
-0.903, -3.223e-6
-0.904, -3.229e-6
-0.905, -3.233e-6
-0.906, -3.239e-6
-0.907, -3.244e-6
-0.908, -3.250e-6
-0.909, -3.255e-6
-0.910, -3.262e-6
-0.911, -3.267e-6
-0.912, -3.272e-6
-0.913, -3.276e-6
-0.914, -3.282e-6
-0.915, -3.287e-6
-0.916, -3.293e-6
-0.917, -3.298e-6
-0.918, -3.304e-6
-0.919, -3.309e-6
-0.920, -3.315e-6
-0.921, -3.320e-6
-0.922, -3.325e-6
-0.923, -3.330e-6
-0.924, -3.335e-6
-0.925, -3.340e-6
-0.926, -3.346e-6
-0.927, -3.351e-6
-0.928, -3.357e-6
-0.929, -3.362e-6
-0.930, -3.368e-6
-0.931, -3.373e-6
-0.932, -3.378e-6
-0.933, -3.384e-6
-0.934, -3.390e-6
-0.935, -3.394e-6
-0.936, -3.400e-6
-0.937, -3.405e-6
-0.938, -3.411e-6
-0.939, -3.416e-6
-0.940, -3.422e-6
-0.941, -3.426e-6
-0.942, -3.432e-6
-0.943, -3.437e-6
-0.944, -3.443e-6
-0.945, -3.447e-6
-0.946, -3.454e-6
-0.947, -3.458e-6
-0.948, -3.464e-6
-0.949, -3.469e-6
-0.950, -3.475e-6
-0.951, -3.479e-6
-0.952, -3.485e-6
-0.953, -3.490e-6
-0.954, -3.496e-6
-0.955, -3.501e-6
-0.956, -3.507e-6
-0.957, -3.512e-6
-0.958, -3.517e-6
-0.959, -3.522e-6
-0.960, -3.528e-6
-0.961, -3.533e-6
-0.962, -3.539e-6
-0.963, -3.543e-6
-0.964, -3.549e-6
-0.965, -3.554e-6
-0.966, -3.560e-6
-0.967, -3.564e-6
-0.968, -3.570e-6
-0.969, -3.575e-6
-0.970, -3.580e-6
-0.971, -3.585e-6
-0.972, -3.591e-6
-0.973, -3.595e-6
-0.974, -3.601e-6
-0.975, -3.606e-6
-0.976, -3.612e-6
-0.977, -3.616e-6
-0.978, -3.622e-6
-0.979, -3.626e-6
-0.980, -3.632e-6
-0.981, -3.638e-6
-0.982, -3.643e-6
-0.983, -3.647e-6
-0.984, -3.653e-6
-0.985, -3.658e-6
-0.986, -3.663e-6
-0.987, -3.668e-6
-0.988, -3.674e-6
-0.989, -3.678e-6
-0.990, -3.684e-6
-0.991, -3.689e-6
-0.992, -3.695e-6
-0.993, -3.699e-6
-0.994, -3.705e-6
-0.995, -3.710e-6
-0.996, -3.715e-6
-0.997, -3.720e-6
-0.998, -3.726e-6
-0.999, -3.730e-6

Segment 2:
-1.000, -3.730e-6
-0.999, -3.706e-6
-0.998, -3.679e-6
-0.997, -3.651e-6
-0.996, -3.625e-6
-0.995, -3.599e-6
-0.994, -3.575e-6
-0.993, -3.550e-6
-0.992, -3.527e-6
-0.991, -3.504e-6
-0.990, -3.482e-6
-0.989, -3.459e-6
-0.988, -3.438e-6
-0.987, -3.416e-6
-0.986, -3.396e-6
-0.985, -3.376e-6
-0.984, -3.356e-6
-0.983, -3.336e-6
-0.982, -3.317e-6
-0.981, -3.297e-6
-0.980, -3.279e-6
-0.979, -3.260e-6
-0.978, -3.242e-6
-0.977, -3.224e-6
-0.976, -3.207e-6
-0.975, -3.189e-6
-0.974, -3.172e-6
-0.973, -3.154e-6
-0.972, -3.138e-6
-0.971, -3.121e-6
-0.970, -3.105e-6
-0.969, -3.088e-6
-0.968, -3.073e-6
-0.967, -3.056e-6
-0.966, -3.041e-6
-0.965, -3.025e-6
-0.964, -3.010e-6
-0.963, -2.994e-6
-0.962, -2.979e-6
-0.961, -2.964e-6
-0.960, -2.950e-6
-0.959, -2.934e-6
-0.958, -2.920e-6
-0.957, -2.905e-6
-0.956, -2.891e-6
-0.955, -2.877e-6
-0.954, -2.863e-6
-0.953, -2.849e-6
-0.952, -2.835e-6
-0.951, -2.821e-6
-0.950, -2.808e-6
-0.949, -2.794e-6
-0.948, -2.781e-6
-0.947, -2.767e-6
-0.946, -2.755e-6
-0.945, -2.741e-6
-0.944, -2.729e-6
-0.943, -2.715e-6
-0.942, -2.703e-6
-0.941, -2.690e-6
-0.940, -2.678e-6
-0.939, -2.665e-6
-0.938, -2.653e-6
-0.937, -2.640e-6
-0.936, -2.629e-6
-0.935, -2.616e-6
-0.934, -2.605e-6
-0.933, -2.592e-6
-0.932, -2.581e-6
-0.931, -2.569e-6
-0.930, -2.557e-6
-0.929, -2.545e-6
-0.928, -2.534e-6
-0.927, -2.522e-6
-0.926, -2.511e-6
-0.925, -2.499e-6
-0.924, -2.489e-6
-0.923, -2.477e-6
-0.922, -2.467e-6
-0.921, -2.456e-6
-0.920, -2.445e-6
-0.919, -2.434e-6
-0.918, -2.423e-6
-0.917, -2.412e-6
-0.916, -2.402e-6
-0.915, -2.391e-6
-0.914, -2.381e-6
-0.913, -2.370e-6
-0.912, -2.361e-6
-0.911, -2.350e-6
-0.910, -2.339e-6
-0.909, -2.329e-6
-0.908, -2.319e-6
-0.907, -2.309e-6
-0.906, -2.299e-6
-0.905, -2.289e-6
-0.904, -2.279e-6
-0.903, -2.269e-6
-0.902, -2.260e-6
-0.901, -2.250e-6
-0.900, -2.241e-6
-0.899, -2.230e-6
-0.898, -2.221e-6
-0.897, -2.211e-6
-0.896, -2.203e-6
-0.895, -2.193e-6
-0.894, -2.184e-6
-0.893, -2.174e-6
-0.892, -2.165e-6
-0.891, -2.155e-6
-0.890, -2.147e-6
-0.889, -2.137e-6
-0.888, -2.128e-6
-0.887, -2.119e-6
-0.886, -2.111e-6
-0.885, -2.101e-6
-0.884, -2.093e-6
-0.883, -2.083e-6
-0.882, -2.075e-6
-0.881, -2.066e-6
-0.880, -2.057e-6
-0.879, -2.049e-6
-0.878, -2.041e-6
-0.877, -2.032e-6
-0.876, -2.023e-6
-0.875, -2.014e-6
-0.874, -2.006e-6
-0.873, -1.997e-6
-0.872, -1.990e-6
-0.871, -1.981e-6
-0.870, -1.973e-6
-0.869, -1.964e-6
-0.868, -1.956e-6
-0.867, -1.948e-6
-0.866, -1.940e-6
-0.865, -1.932e-6
-0.864, -1.924e-6
-0.863, -1.915e-6
-0.862, -1.907e-6
-0.861, -1.899e-6
-0.860, -1.891e-6
-0.859, -1.883e-6
-0.858, -1.876e-6
-0.857, -1.867e-6
-0.856, -1.860e-6
-0.855, -1.852e-6
-0.854, -1.845e-6
-0.853, -1.836e-6
-0.852, -1.829e-6
-0.851, -1.821e-6
-0.850, -1.814e-6
-0.849, -1.806e-6
-0.848, -1.799e-6
-0.847, -1.791e-6
-0.846, -1.784e-6
-0.845, -1.777e-6
-0.844, -1.770e-6
-0.843, -1.762e-6
-0.842, -1.755e-6
-0.841, -1.748e-6
-0.840, -1.741e-6
-0.839, -1.733e-6
-0.838, -1.726e-6
-0.837, -1.719e-6
-0.836, -1.712e-6
-0.835, -1.705e-6
-0.834, -1.699e-6
-0.833, -1.691e-6
-0.832, -1.684e-6
-0.831, -1.677e-6
-0.830, -1.670e-6
-0.829, -1.663e-6
-0.828, -1.657e-6
-0.827, -1.650e-6
-0.826, -1.643e-6
-0.825, -1.636e-6
-0.824, -1.629e-6
-0.823, -1.622e-6
-0.822, -1.616e-6
-0.821, -1.609e-6
-0.820, -1.603e-6
-0.819, -1.596e-6
-0.818, -1.589e-6
-0.817, -1.582e-6
-0.816, -1.576e-6
-0.815, -1.569e-6
-0.814, -1.563e-6
-0.813, -1.556e-6
-0.812, -1.551e-6
-0.811, -1.544e-6
-0.810, -1.538e-6
-0.809, -1.531e-6
-0.808, -1.525e-6
-0.807, -1.518e-6
-0.806, -1.513e-6
-0.805, -1.506e-6
-0.804, -1.500e-6
-0.803, -1.494e-6
-0.802, -1.488e-6
-0.801, -1.481e-6
-0.800, -1.476e-6
-0.799, -1.469e-6
-0.798, -1.463e-6
-0.797, -1.457e-6
-0.796, -1.452e-6
-0.795, -1.445e-6
-0.794, -1.439e-6
-0.793, -1.433e-6
-0.792, -1.428e-6
-0.791, -1.421e-6
-0.790, -1.415e-6
-0.789, -1.409e-6
-0.788, -1.404e-6
-0.787, -1.398e-6
-0.786, -1.392e-6
-0.785, -1.386e-6
-0.784, -1.381e-6
-0.783, -1.375e-6
-0.782, -1.369e-6
-0.781, -1.363e-6
-0.780, -1.358e-6
-0.779, -1.352e-6
-0.778, -1.347e-6
-0.777, -1.341e-6
-0.776, -1.336e-6
-0.775, -1.330e-6
-0.774, -1.325e-6
-0.773, -1.319e-6
-0.772, -1.314e-6
-0.771, -1.308e-6
-0.770, -1.303e-6
-0.769, -1.297e-6
-0.768, -1.292e-6
-0.767, -1.286e-6
-0.766, -1.281e-6
-0.765, -1.275e-6
-0.764, -1.271e-6
-0.763, -1.265e-6
-0.762, -1.260e-6
-0.761, -1.254e-6
-0.760, -1.249e-6
-0.759, -1.244e-6
-0.758, -1.239e-6
-0.757, -1.233e-6
-0.756, -1.228e-6
-0.755, -1.223e-6
-0.754, -1.218e-6
-0.753, -1.213e-6
-0.752, -1.208e-6
-0.751, -1.202e-6
-0.750, -1.198e-6
-0.749, -1.192e-6
-0.748, -1.188e-6
-0.747, -1.182e-6
-0.746, -1.177e-6
-0.745, -1.172e-6
-0.744, -1.167e-6
-0.743, -1.162e-6
-0.742, -1.158e-6
-0.741, -1.152e-6
-0.740, -1.147e-6
-0.739, -1.142e-6
-0.738, -1.138e-6
-0.737, -1.133e-6
-0.736, -1.128e-6
-0.735, -1.123e-6
-0.734, -1.119e-6
-0.733, -1.114e-6
-0.732, -1.110e-6
-0.731, -1.104e-6
-0.730, -1.100e-6
-0.729, -1.095e-6
-0.728, -1.090e-6
-0.727, -1.085e-6
-0.726, -1.081e-6
-0.725, -1.076e-6
-0.724, -1.072e-6
-0.723, -1.067e-6
-0.722, -1.063e-6
-0.721, -1.058e-6
-0.720, -1.054e-6
-0.719, -1.049e-6
-0.718, -1.044e-6
-0.717, -1.039e-6
-0.716, -1.035e-6
-0.715, -1.030e-6
-0.714, -1.026e-6
-0.713, -1.022e-6
-0.712, -1.018e-6
-0.711, -1.013e-6
-0.710, -1.009e-6
-0.709, -1.004e-6
-0.708, -1.000e-6
-0.707, -9.954e-7
-0.706, -9.913e-7
-0.705, -9.864e-7
-0.704, -9.823e-7
-0.703, -9.777e-7
-0.702, -9.739e-7
-0.701, -9.691e-7
-0.700, -9.657e-7
-0.699, -9.612e-7
-0.698, -9.571e-7
-0.697, -9.523e-7
-0.696, -9.488e-7
-0.695, -9.442e-7
-0.694, -9.404e-7
-0.693, -9.356e-7
-0.692, -9.317e-7
-0.691, -9.273e-7
-0.690, -9.237e-7
-0.689, -9.193e-7
-0.688, -9.160e-7
-0.687, -9.117e-7
-0.686, -9.077e-7
-0.685, -9.031e-7
-0.684, -8.997e-7
-0.683, -8.952e-7
-0.682, -8.919e-7
-0.681, -8.875e-7
-0.680, -8.835e-7
-0.679, -8.788e-7
-0.678, -8.755e-7
-0.677, -8.712e-7
-0.676, -8.679e-7
-0.675, -8.639e-7
-0.674, -8.602e-7
-0.673, -8.554e-7
-0.672, -8.520e-7
-0.671, -8.476e-7
-0.670, -8.444e-7
-0.669, -8.404e-7
-0.668, -8.371e-7
-0.667, -8.323e-7
-0.666, -8.291e-7
-0.665, -8.248e-7
-0.664, -8.215e-7
-0.663, -8.175e-7
-0.662, -8.145e-7
-0.661, -8.101e-7
-0.660, -8.068e-7
-0.659, -8.027e-7
-0.658, -7.995e-7
-0.657, -7.955e-7
-0.656, -7.924e-7
-0.655, -7.886e-7
-0.654, -7.851e-7
-0.653, -7.809e-7
-0.652, -7.775e-7
-0.651, -7.733e-7
-0.650, -7.703e-7
-0.649, -7.668e-7
-0.648, -7.635e-7
-0.647, -7.592e-7
-0.646, -7.562e-7
-0.645, -7.523e-7
-0.644, -7.489e-7
-0.643, -7.452e-7
-0.642, -7.423e-7
-0.641, -7.382e-7
-0.640, -7.354e-7
-0.639, -7.316e-7
-0.638, -7.288e-7
-0.637, -7.248e-7
-0.636, -7.218e-7
-0.635, -7.179e-7
-0.634, -7.149e-7
-0.633, -7.109e-7
-0.632, -7.079e-7
-0.631, -7.042e-7
-0.630, -7.014e-7
-0.629, -6.976e-7
-0.628, -6.947e-7
-0.627, -6.909e-7
-0.626, -6.878e-7
-0.625, -6.839e-7
-0.624, -6.814e-7
-0.623, -6.776e-7
-0.622, -6.748e-7
-0.621, -6.711e-7
-0.620, -6.686e-7
-0.619, -6.645e-7
-0.618, -6.615e-7
-0.617, -6.579e-7
-0.616, -6.552e-7
-0.615, -6.517e-7
-0.614, -6.490e-7
-0.613, -6.455e-7
-0.612, -6.428e-7
-0.611, -6.390e-7
-0.610, -6.363e-7
-0.609, -6.328e-7
-0.608, -6.302e-7
-0.607, -6.267e-7
-0.606, -6.242e-7
-0.605, -6.209e-7
-0.604, -6.184e-7
-0.603, -6.142e-7
-0.602, -6.115e-7
-0.601, -6.079e-7
-0.600, -6.055e-7
-0.599, -6.019e-7
-0.598, -5.995e-7
-0.597, -5.962e-7
-0.596, -5.937e-7
-0.595, -5.900e-7
-0.594, -5.874e-7
-0.593, -5.840e-7
-0.592, -5.817e-7
-0.591, -5.783e-7
-0.590, -5.758e-7
-0.589, -5.727e-7
-0.588, -5.705e-7
-0.587, -5.669e-7
-0.586, -5.643e-7
-0.585, -5.606e-7
-0.584, -5.582e-7
-0.583, -5.548e-7
-0.582, -5.525e-7
-0.581, -5.493e-7
-0.580, -5.470e-7
-0.579, -5.440e-7
-0.578, -5.416e-7
-0.577, -5.382e-7
-0.576, -5.360e-7
-0.575, -5.327e-7
-0.574, -5.303e-7
-0.573, -5.271e-7
-0.572, -5.250e-7
-0.571, -5.219e-7
-0.570, -5.198e-7
-0.569, -5.162e-7
-0.568, -5.140e-7
-0.567, -5.107e-7
-0.566, -5.086e-7
-0.565, -5.051e-7
-0.564, -5.028e-7
-0.563, -4.998e-7
-0.562, -4.977e-7
-0.561, -4.946e-7
-0.560, -4.924e-7
-0.559, -4.892e-7
-0.558, -4.871e-7
-0.557, -4.841e-7
-0.556, -4.821e-7
-0.555, -4.790e-7
-0.554, -4.770e-7
-0.553, -4.743e-7
-0.552, -4.722e-7
-0.551, -4.692e-7
-0.550, -4.668e-7
-0.549, -4.638e-7
-0.548, -4.618e-7
-0.547, -4.588e-7
-0.546, -4.567e-7
-0.545, -4.534e-7
-0.544, -4.515e-7
-0.543, -4.486e-7
-0.542, -4.465e-7
-0.541, -4.434e-7
-0.540, -4.415e-7
-0.539, -4.386e-7
-0.538, -4.368e-7
-0.537, -4.340e-7
-0.536, -4.318e-7
-0.535, -4.288e-7
-0.534, -4.270e-7
-0.533, -4.244e-7
-0.532, -4.224e-7
-0.531, -4.194e-7
-0.530, -4.175e-7
-0.529, -4.145e-7
-0.528, -4.127e-7
-0.527, -4.100e-7
-0.526, -4.082e-7
-0.525, -4.053e-7
-0.524, -4.034e-7
-0.523, -4.004e-7
-0.522, -3.987e-7
-0.521, -3.957e-7
-0.520, -3.938e-7
-0.519, -3.910e-7
-0.518, -3.894e-7
-0.517, -3.867e-7
-0.516, -3.850e-7
-0.515, -3.823e-7
-0.514, -3.805e-7
-0.513, -3.779e-7
-0.512, -3.765e-7
-0.511, -3.740e-7
-0.510, -3.721e-7
-0.509, -3.692e-7
-0.508, -3.673e-7
-0.507, -3.647e-7
-0.506, -3.631e-7
-0.505, -3.605e-7
-0.504, -3.589e-7
-0.503, -3.562e-7
-0.502, -3.546e-7
-0.501, -3.520e-7
-0.500, -3.504e-7
-0.499, -3.476e-7
-0.498, -3.458e-7
-0.497, -3.430e-7
-0.496, -3.414e-7
-0.495, -3.389e-7
-0.494, -3.374e-7
-0.493, -3.350e-7
-0.492, -3.336e-7
-0.491, -3.311e-7
-0.490, -3.297e-7
-0.489, -3.272e-7
-0.488, -3.257e-7
-0.487, -3.231e-7
-0.486, -3.216e-7
-0.485, -3.189e-7
-0.484, -3.174e-7
-0.483, -3.150e-7
-0.482, -3.135e-7
-0.481, -3.110e-7
-0.480, -3.095e-7
-0.479, -3.069e-7
-0.478, -3.054e-7
-0.477, -3.029e-7
-0.476, -3.015e-7
-0.475, -2.989e-7
-0.474, -2.974e-7
-0.473, -2.949e-7
-0.472, -2.934e-7
-0.471, -2.912e-7
-0.470, -2.899e-7
-0.469, -2.875e-7
-0.468, -2.860e-7
-0.467, -2.836e-7
-0.466, -2.823e-7
-0.465, -2.800e-7
-0.464, -2.786e-7
-0.463, -2.765e-7
-0.462, -2.751e-7
-0.461, -2.725e-7
-0.460, -2.711e-7
-0.459, -2.686e-7
-0.458, -2.673e-7
-0.457, -2.652e-7
-0.456, -2.639e-7
-0.455, -2.615e-7
-0.454, -2.603e-7
-0.453, -2.581e-7
-0.452, -2.567e-7
-0.451, -2.544e-7
-0.450, -2.533e-7
-0.449, -2.508e-7
-0.448, -2.494e-7
-0.447, -2.470e-7
-0.446, -2.457e-7
-0.445, -2.435e-7
-0.444, -2.423e-7
-0.443, -2.401e-7
-0.442, -2.390e-7
-0.441, -2.368e-7
-0.440, -2.356e-7
-0.439, -2.334e-7
-0.438, -2.324e-7
-0.437, -2.303e-7
-0.436, -2.292e-7
-0.435, -2.273e-7
-0.434, -2.260e-7
-0.433, -2.236e-7
-0.432, -2.225e-7
-0.431, -2.203e-7
-0.430, -2.191e-7
-0.429, -2.169e-7
-0.428, -2.159e-7
-0.427, -2.138e-7
-0.426, -2.127e-7
-0.425, -2.106e-7
-0.424, -2.095e-7
-0.423, -2.075e-7
-0.422, -2.065e-7
-0.421, -2.044e-7
-0.420, -2.034e-7
-0.419, -2.011e-7
-0.418, -2.000e-7
-0.417, -1.977e-7
-0.416, -1.966e-7
-0.415, -1.944e-7
-0.414, -1.934e-7
-0.413, -1.916e-7
-0.412, -1.905e-7
-0.411, -1.885e-7
-0.410, -1.874e-7
-0.409, -1.855e-7
-0.408, -1.845e-7
-0.407, -1.825e-7
-0.406, -1.817e-7
-0.405, -1.799e-7
-0.404, -1.790e-7
-0.403, -1.770e-7
-0.402, -1.761e-7
-0.401, -1.739e-7
-0.400, -1.727e-7
-0.399, -1.706e-7
-0.398, -1.696e-7
-0.397, -1.676e-7
-0.396, -1.669e-7
-0.395, -1.649e-7
-0.394, -1.640e-7
-0.393, -1.621e-7
-0.392, -1.613e-7
-0.391, -1.592e-7
-0.390, -1.584e-7
-0.389, -1.565e-7
-0.388, -1.558e-7
-0.387, -1.540e-7
-0.386, -1.531e-7
-0.385, -1.511e-7
-0.384, -1.503e-7
-0.383, -1.482e-7
-0.382, -1.473e-7
-0.381, -1.455e-7
-0.380, -1.446e-7
-0.379, -1.426e-7
-0.378, -1.419e-7
-0.377, -1.401e-7
-0.376, -1.392e-7
-0.375, -1.373e-7
-0.374, -1.365e-7
-0.373, -1.347e-7
-0.372, -1.340e-7
-0.371, -1.323e-7
-0.370, -1.316e-7
-0.369, -1.300e-7
-0.368, -1.293e-7
-0.367, -1.274e-7
-0.366, -1.266e-7
-0.365, -1.247e-7
-0.364, -1.239e-7
-0.363, -1.220e-7
-0.362, -1.213e-7
-0.361, -1.194e-7
-0.360, -1.187e-7
-0.359, -1.170e-7
-0.358, -1.161e-7
-0.357, -1.144e-7
-0.356, -1.137e-7
-0.355, -1.119e-7
-0.354, -1.113e-7
-0.353, -1.094e-7
-0.352, -1.089e-7
-0.351, -1.072e-7
-0.350, -1.066e-7
-0.349, -1.050e-7
-0.348, -1.043e-7
-0.347, -1.026e-7
-0.346, -1.019e-7
-0.345, -1.001e-7
-0.344, -9.938e-8
-0.343, -9.763e-8
-0.342, -9.702e-8
-0.341, -9.526e-8
-0.340, -9.457e-8
-0.339, -9.290e-8
-0.338, -9.220e-8
-0.337, -9.041e-8
-0.336, -8.979e-8
-0.335, -8.818e-8
-0.334, -8.744e-8
-0.333, -8.580e-8
-0.332, -8.533e-8
-0.331, -8.373e-8
-0.330, -8.325e-8
-0.329, -8.184e-8
-0.328, -8.129e-8
-0.327, -7.978e-8
-0.326, -7.925e-8
-0.325, -7.750e-8
-0.324, -7.696e-8
-0.323, -7.519e-8
-0.322, -7.470e-8
-0.321, -7.292e-8
-0.320, -7.240e-8
-0.319, -7.091e-8
-0.318, -7.027e-8
-0.317, -6.882e-8
-0.316, -6.841e-8
-0.315, -6.673e-8
-0.314, -6.627e-8
-0.313, -6.466e-8
-0.312, -6.415e-8
-0.311, -6.265e-8
-0.310, -6.219e-8
-0.309, -6.065e-8
-0.308, -6.020e-8
-0.307, -5.873e-8
-0.306, -5.833e-8
-0.305, -5.680e-8
-0.304, -5.636e-8
-0.303, -5.481e-8
-0.302, -5.440e-8
-0.301, -5.266e-8
-0.300, -5.226e-8
-0.299, -5.058e-8
-0.298, -5.013e-8
-0.297, -4.849e-8
-0.296, -4.808e-8
-0.295, -4.659e-8
-0.294, -4.614e-8
-0.293, -4.478e-8
-0.292, -4.432e-8
-0.291, -4.282e-8
-0.290, -4.227e-8
-0.289, -4.070e-8
-0.288, -4.033e-8
-0.287, -3.878e-8
-0.286, -3.830e-8
-0.285, -3.681e-8
-0.284, -3.647e-8
-0.283, -3.500e-8
-0.282, -3.474e-8
-0.281, -3.341e-8
-0.280, -3.300e-8
-0.279, -3.169e-8
-0.278, -3.147e-8
-0.277, -2.996e-8
-0.276, -2.959e-8
-0.275, -2.812e-8
-0.274, -2.769e-8
-0.273, -2.608e-8
-0.272, -2.578e-8
-0.271, -2.430e-8
-0.270, -2.395e-8
-0.269, -2.259e-8
-0.268, -2.222e-8
-0.267, -2.086e-8
-0.266, -2.059e-8
-0.265, -1.923e-8
-0.264, -1.886e-8
-0.263, -1.748e-8
-0.262, -1.716e-8
-0.261, -1.571e-8
-0.260, -1.539e-8
-0.259, -1.400e-8
-0.258, -1.364e-8
-0.257, -1.216e-8
-0.256, -1.184e-8
-0.255, -1.052e-8
-0.254, -1.014e-8
-0.253, -8.832e-9
-0.252, -8.577e-9
-0.251, -7.253e-9
-0.250, -7.106e-9
-0.249, -5.684e-9
-0.248, -5.399e-9
-0.247, -3.938e-9
-0.246, -3.781e-9
-0.245, -2.232e-9
-0.244, -1.977e-9
-0.243, -5.845e-10
-0.242, -3.785e-10
-0.241, 1.034e-9
-0.240, 1.259e-9
-0.239, 2.583e-9
-0.238, 2.809e-9
-0.237, 4.005e-9
-0.236, 4.221e-9
-0.235, 5.574e-9
-0.234, 5.652e-9
-0.233, 7.114e-9
-0.232, 7.300e-9
-0.231, 8.722e-9
-0.230, 8.918e-9
-0.229, 1.045e-8
-0.228, 1.058e-8
-0.227, 1.197e-8
-0.226, 1.217e-8
-0.225, 1.355e-8
-0.224, 1.383e-8
-0.223, 1.493e-8
-0.222, 1.515e-8
-0.221, 1.623e-8
-0.220, 1.640e-8
-0.219, 1.759e-8
-0.218, 1.774e-8
-0.217, 1.908e-8
-0.216, 1.917e-8
-0.215, 2.048e-8
-0.214, 2.059e-8
-0.213, 2.214e-8
-0.212, 2.227e-8
-0.211, 2.365e-8
-0.210, 2.385e-8
-0.209, 2.524e-8
-0.208, 2.523e-8
-0.207, 2.654e-8
-0.206, 2.675e-8
-0.205, 2.789e-8
-0.204, 2.810e-8
-0.203, 2.941e-8
-0.202, 2.939e-8
-0.201, 3.063e-8
-0.200, 3.073e-8
-0.199, 3.209e-8
-0.198, 3.222e-8
-0.197, 3.343e-8
-0.196, 3.349e-8
-0.195, 3.487e-8
-0.194, 3.493e-8
-0.193, 3.618e-8
-0.192, 3.626e-8
-0.191, 3.744e-8
-0.190, 3.756e-8
-0.189, 3.868e-8
-0.188, 3.881e-8
-0.187, 4.001e-8
-0.186, 4.004e-8
-0.185, 4.119e-8
-0.184, 4.130e-8
-0.183, 4.252e-8
-0.182, 4.253e-8
-0.181, 4.381e-8
-0.180, 4.391e-8
-0.179, 4.514e-8
-0.178, 4.512e-8
-0.177, 4.653e-8
-0.176, 4.657e-8
-0.175, 4.784e-8
-0.174, 4.790e-8
-0.173, 4.908e-8
-0.172, 4.915e-8
-0.171, 5.035e-8
-0.170, 5.036e-8
-0.169, 5.150e-8
-0.168, 5.157e-8
-0.167, 5.269e-8
-0.166, 5.278e-8
-0.165, 5.387e-8
-0.164, 5.393e-8
-0.163, 5.510e-8
-0.162, 5.513e-8
-0.161, 5.632e-8
-0.160, 5.634e-8
-0.159, 5.751e-8
-0.158, 5.752e-8
-0.157, 5.878e-8
-0.156, 5.873e-8
-0.155, 5.994e-8
-0.154, 5.994e-8
-0.153, 6.109e-8
-0.152, 6.120e-8
-0.151, 6.226e-8
-0.150, 6.222e-8
-0.149, 6.323e-8
-0.148, 6.318e-8
-0.147, 6.409e-8
-0.146, 6.417e-8
-0.145, 6.501e-8
-0.144, 6.503e-8
-0.143, 6.599e-8
-0.142, 6.606e-8
-0.141, 6.724e-8
-0.140, 6.722e-8
-0.139, 6.881e-8
-0.138, 6.856e-8
-0.137, 7.009e-8
-0.136, 7.012e-8
-0.135, 7.147e-8
-0.134, 7.132e-8
-0.133, 7.263e-8
-0.132, 7.253e-8
-0.131, 7.380e-8
-0.130, 7.375e-8
-0.129, 7.508e-8
-0.128, 7.490e-8
-0.127, 7.612e-8
-0.126, 7.612e-8
-0.125, 7.712e-8
-0.124, 7.699e-8
-0.123, 7.822e-8
-0.122, 7.810e-8
-0.121, 7.920e-8
-0.120, 7.925e-8
-0.119, 8.028e-8
-0.118, 8.021e-8
-0.117, 8.136e-8
-0.116, 8.128e-8
-0.115, 8.249e-8
-0.114, 8.234e-8
-0.113, 8.348e-8
-0.112, 8.334e-8
-0.111, 8.450e-8
-0.110, 8.442e-8
-0.109, 8.544e-8
-0.108, 8.537e-8
-0.107, 8.664e-8
-0.106, 8.644e-8
-0.105, 8.743e-8
-0.104, 8.744e-8
-0.103, 8.850e-8
-0.102, 8.830e-8
-0.101, 8.943e-8
-0.100, 8.929e-8
-0.099, 9.033e-8
-0.098, 9.019e-8
-0.097, 9.135e-8
-0.096, 9.118e-8
-0.095, 9.231e-8
-0.094, 9.218e-8
-0.093, 9.335e-8
-0.092, 9.309e-8
-0.091, 9.440e-8
-0.090, 9.420e-8
-0.089, 9.535e-8
-0.088, 9.527e-8
-0.087, 9.655e-8
-0.086, 9.624e-8
-0.085, 9.745e-8
-0.084, 9.738e-8
-0.083, 9.841e-8
-0.082, 9.824e-8
-0.081, 9.947e-8
-0.080, 9.923e-8
-0.079, 1.003e-7
-0.078, 1.002e-7
-0.077, 1.012e-7
-0.076, 1.010e-7
-0.075, 1.021e-7
-0.074, 1.019e-7
-0.073, 1.030e-7
-0.072, 1.029e-7
-0.071, 1.039e-7
-0.070, 1.038e-7
-0.069, 1.049e-7
-0.068, 1.047e-7
-0.067, 1.058e-7
-0.066, 1.055e-7
-0.065, 1.067e-7
-0.064, 1.065e-7
-0.063, 1.077e-7
-0.062, 1.076e-7
-0.061, 1.087e-7
-0.060, 1.085e-7
-0.059, 1.096e-7
-0.058, 1.094e-7
-0.057, 1.105e-7
-0.056, 1.103e-7
-0.055, 1.113e-7
-0.054, 1.112e-7
-0.053, 1.122e-7
-0.052, 1.120e-7
-0.051, 1.130e-7
-0.050, 1.128e-7
-0.049, 1.138e-7
-0.048, 1.136e-7
-0.047, 1.146e-7
-0.046, 1.144e-7
-0.045, 1.154e-7
-0.044, 1.151e-7
-0.043, 1.163e-7
-0.042, 1.160e-7
-0.041, 1.171e-7
-0.040, 1.168e-7
-0.039, 1.180e-7
-0.038, 1.178e-7
-0.037, 1.189e-7
-0.036, 1.187e-7
-0.035, 1.200e-7
-0.034, 1.197e-7
-0.033, 1.210e-7
-0.032, 1.207e-7
-0.031, 1.219e-7
-0.030, 1.217e-7
-0.029, 1.229e-7
-0.028, 1.225e-7
-0.027, 1.239e-7
-0.026, 1.234e-7
-0.025, 1.247e-7
-0.024, 1.245e-7
-0.023, 1.257e-7
-0.022, 1.254e-7
-0.021, 1.265e-7
-0.020, 1.263e-7
-0.019, 1.274e-7
-0.018, 1.271e-7
-0.017, 1.283e-7
-0.016, 1.280e-7
-0.015, 1.291e-7
-0.014, 1.289e-7
-0.013, 1.300e-7
-0.012, 1.297e-7
-0.011, 1.309e-7
-0.010, 1.306e-7
-0.009, 1.317e-7
-0.008, 1.314e-7
-0.007, 1.325e-7
-0.006, 1.322e-7
-0.005, 1.333e-7
-0.004, 1.331e-7
-0.003, 1.341e-7
-0.002, 1.339e-7
-0.001, 1.350e-7
-0.000, 1.347e-7
0.001, 1.357e-7
0.002, 1.355e-7
0.003, 1.366e-7
0.004, 1.363e-7
0.005, 1.374e-7
0.006, 1.370e-7
0.007, 1.381e-7
0.008, 1.379e-7
0.009, 1.389e-7
0.010, 1.386e-7
0.011, 1.397e-7
0.012, 1.393e-7
0.013, 1.405e-7
0.014, 1.402e-7
0.015, 1.414e-7
0.016, 1.409e-7
0.017, 1.420e-7
0.018, 1.418e-7
0.019, 1.430e-7
0.020, 1.426e-7
0.021, 1.439e-7
0.022, 1.434e-7
0.023, 1.447e-7
0.024, 1.443e-7
0.025, 1.455e-7
0.026, 1.451e-7
0.027, 1.464e-7
0.028, 1.460e-7
0.029, 1.471e-7
0.030, 1.467e-7
0.031, 1.480e-7
0.032, 1.476e-7
0.033, 1.488e-7
0.034, 1.485e-7
0.035, 1.496e-7
0.036, 1.492e-7
0.037, 1.503e-7
0.038, 1.499e-7
0.039, 1.511e-7
0.040, 1.508e-7
0.041, 1.520e-7
0.042, 1.516e-7
0.043, 1.527e-7
0.044, 1.523e-7
0.045, 1.535e-7
0.046, 1.532e-7
0.047, 1.542e-7
0.048, 1.539e-7
0.049, 1.550e-7
0.050, 1.547e-7
0.051, 1.558e-7
0.052, 1.555e-7
0.053, 1.566e-7
0.054, 1.562e-7
0.055, 1.574e-7
0.056, 1.570e-7
0.057, 1.581e-7
0.058, 1.578e-7
0.059, 1.589e-7
0.060, 1.586e-7
0.061, 1.596e-7
0.062, 1.593e-7
0.063, 1.603e-7
0.064, 1.599e-7
0.065, 1.610e-7
0.066, 1.607e-7
0.067, 1.617e-7
0.068, 1.613e-7
0.069, 1.624e-7
0.070, 1.620e-7
0.071, 1.631e-7
0.072, 1.627e-7
0.073, 1.636e-7
0.074, 1.634e-7
0.075, 1.644e-7
0.076, 1.640e-7
0.077, 1.651e-7
0.078, 1.647e-7
0.079, 1.658e-7
0.080, 1.654e-7
0.081, 1.665e-7
0.082, 1.662e-7
0.083, 1.675e-7
0.084, 1.669e-7
0.085, 1.681e-7
0.086, 1.677e-7
0.087, 1.689e-7
0.088, 1.685e-7
0.089, 1.699e-7
0.090, 1.695e-7
0.091, 1.706e-7
0.092, 1.702e-7
0.093, 1.714e-7
0.094, 1.710e-7
0.095, 1.720e-7
0.096, 1.716e-7
0.097, 1.729e-7
0.098, 1.725e-7
0.099, 1.736e-7
0.100, 1.732e-7
0.101, 1.744e-7
0.102, 1.740e-7
0.103, 1.751e-7
0.104, 1.748e-7
0.105, 1.759e-7
0.106, 1.755e-7
0.107, 1.767e-7
0.108, 1.763e-7
0.109, 1.774e-7
0.110, 1.771e-7
0.111, 1.783e-7
0.112, 1.777e-7
0.113, 1.789e-7
0.114, 1.785e-7
0.115, 1.798e-7
0.116, 1.793e-7
0.117, 1.805e-7
0.118, 1.800e-7
0.119, 1.811e-7
0.120, 1.808e-7
0.121, 1.819e-7
0.122, 1.814e-7
0.123, 1.826e-7
0.124, 1.822e-7
0.125, 1.833e-7
0.126, 1.828e-7
0.127, 1.840e-7
0.128, 1.834e-7
0.129, 1.847e-7
0.130, 1.842e-7
0.131, 1.853e-7
0.132, 1.849e-7
0.133, 1.860e-7
0.134, 1.856e-7
0.135, 1.866e-7
0.136, 1.863e-7
0.137, 1.873e-7
0.138, 1.868e-7
0.139, 1.879e-7
0.140, 1.876e-7
0.141, 1.886e-7
0.142, 1.881e-7
0.143, 1.893e-7
0.144, 1.888e-7
0.145, 1.899e-7
0.146, 1.895e-7
0.147, 1.905e-7
0.148, 1.900e-7
0.149, 1.914e-7
0.150, 1.908e-7
0.151, 1.919e-7
0.152, 1.916e-7
0.153, 1.928e-7
0.154, 1.922e-7
0.155, 1.935e-7
0.156, 1.930e-7
0.157, 1.940e-7
0.158, 1.936e-7
0.159, 1.949e-7
0.160, 1.943e-7
0.161, 1.954e-7
0.162, 1.951e-7
0.163, 1.961e-7
0.164, 1.957e-7
0.165, 1.968e-7
0.166, 1.964e-7
0.167, 1.975e-7
0.168, 1.970e-7
0.169, 1.982e-7
0.170, 1.976e-7
0.171, 1.987e-7
0.172, 1.983e-7
0.173, 1.994e-7
0.174, 1.990e-7
0.175, 2.001e-7
0.176, 1.995e-7
0.177, 2.006e-7
0.178, 2.002e-7
0.179, 2.012e-7
0.180, 2.008e-7
0.181, 2.019e-7
0.182, 2.014e-7
0.183, 2.025e-7
0.184, 2.020e-7
0.185, 2.031e-7
0.186, 2.026e-7
0.187, 2.038e-7
0.188, 2.033e-7
0.189, 2.044e-7
0.190, 2.039e-7
0.191, 2.053e-7
0.192, 2.046e-7
0.193, 2.059e-7
0.194, 2.053e-7
0.195, 2.065e-7
0.196, 2.059e-7
0.197, 2.072e-7
0.198, 2.067e-7
0.199, 2.078e-7