File: data/raw_data/electrochemistry/20170904_Gr-NH2_prod_for_Radisurf/45 min cv 1.txt
Sept. 4, 2017   11:29:20
Cyclic Voltammetry
File: 45 min cv 1
Data Source:  Experiment
Instrument Model:  CHI601D
Header:
Note:

Init E (V) = 0.2
High E (V) = 0.2
Low E (V) = -1
Final E (V) = 0.2
Init P/N = N
Scan Rate (V/s) = 0.1
Segment = 2
Sample Interval (V) = 0.001
Quiet Time (sec) = 2
Sensitivity (A/V) = 1e-5

Potential/V, Current/A

Segment 1:
0.200, -4.702e-8
0.199, -6.346e-8
0.198, -7.221e-8
0.197, -7.154e-8
0.196, -7.581e-8
0.195, -7.328e-8
0.194, -7.788e-8
0.193, -7.501e-8
0.192, -7.935e-8
0.191, -7.644e-8
0.190, -8.055e-8
0.189, -7.724e-8
0.188, -8.092e-8
0.187, -7.876e-8
0.186, -8.190e-8
0.185, -7.925e-8
0.184, -8.297e-8
0.183, -7.996e-8
0.182, -8.296e-8
0.181, -8.103e-8
0.180, -8.387e-8
0.179, -8.133e-8
0.178, -8.444e-8
0.177, -8.206e-8
0.176, -8.499e-8
0.175, -8.273e-8
0.174, -8.625e-8
0.173, -8.328e-8
0.172, -8.642e-8
0.171, -8.422e-8
0.170, -8.719e-8
0.169, -8.442e-8
0.168, -8.839e-8
0.167, -8.506e-8
0.166, -8.867e-8
0.165, -8.631e-8
0.164, -8.961e-8
0.163, -8.642e-8
0.162, -9.053e-8
0.161, -8.750e-8
0.160, -9.128e-8
0.159, -8.846e-8
0.158, -9.248e-8
0.157, -8.910e-8
0.156, -9.284e-8
0.155, -9.030e-8
0.154, -9.391e-8
0.153, -9.100e-8
0.152, -9.549e-8
0.151, -9.188e-8
0.150, -9.545e-8
0.149, -9.335e-8
0.148, -9.674e-8
0.147, -9.395e-8
0.146, -9.809e-8
0.145, -9.518e-8
0.144, -9.863e-8
0.143, -9.602e-8
0.142, -1.001e-7
0.141, -9.713e-8
0.140, -1.011e-7
0.139, -9.873e-8
0.138, -1.019e-7
0.137, -9.918e-8
0.136, -1.038e-7
0.135, -1.008e-7
0.134, -1.046e-7
0.133, -1.023e-7
0.132, -1.059e-7
0.131, -1.030e-7
0.130, -1.072e-7
0.129, -1.047e-7
0.128, -1.082e-7
0.127, -1.058e-7
0.126, -1.099e-7
0.125, -1.072e-7
0.124, -1.105e-7
0.123, -1.088e-7
0.122, -1.122e-7
0.121, -1.096e-7
0.120, -1.143e-7
0.119, -1.113e-7
0.118, -1.153e-7
0.117, -1.134e-7
0.116, -1.168e-7
0.115, -1.145e-7
0.114, -1.190e-7
0.113, -1.162e-7
0.112, -1.203e-7
0.111, -1.177e-7
0.110, -1.224e-7
0.109, -1.197e-7
0.108, -1.240e-7
0.107, -1.222e-7
0.106, -1.257e-7
0.105, -1.231e-7
0.104, -1.285e-7
0.103, -1.251e-7
0.102, -1.292e-7
0.101, -1.277e-7
0.100, -1.316e-7
0.099, -1.294e-7
0.098, -1.335e-7
0.097, -1.313e-7
0.096, -1.352e-7
0.095, -1.330e-7
0.094, -1.379e-7
0.093, -1.350e-7
0.092, -1.393e-7
0.091, -1.379e-7
0.090, -1.418e-7
0.089, -1.396e-7
0.088, -1.444e-7
0.087, -1.419e-7
0.086, -1.462e-7
0.085, -1.446e-7
0.084, -1.490e-7
0.083, -1.468e-7
0.082, -1.516e-7
0.081, -1.496e-7
0.080, -1.538e-7
0.079, -1.519e-7
0.078, -1.565e-7
0.077, -1.545e-7
0.076, -1.585e-7
0.075, -1.573e-7
0.074, -1.612e-7
0.073, -1.593e-7
0.072, -1.644e-7
0.071, -1.622e-7
0.070, -1.665e-7
0.069, -1.653e-7
0.068, -1.694e-7
0.067, -1.675e-7
0.066, -1.728e-7
0.065, -1.707e-7
0.064, -1.758e-7
0.063, -1.737e-7
0.062, -1.789e-7
0.061, -1.768e-7
0.060, -1.810e-7
0.059, -1.805e-7
0.058, -1.842e-7
0.057, -1.824e-7
0.056, -1.878e-7
0.055, -1.858e-7
0.054, -1.899e-7
0.053, -1.893e-7
0.052, -1.935e-7
0.051, -1.920e-7
0.050, -1.969e-7
0.049, -1.953e-7
0.048, -2.001e-7
0.047, -1.988e-7
0.046, -2.041e-7
0.045, -2.025e-7
0.044, -2.070e-7
0.043, -2.060e-7
0.042, -2.105e-7
0.041, -2.091e-7
0.040, -2.145e-7
0.039, -2.126e-7
0.038, -2.174e-7
0.037, -2.166e-7
0.036, -2.210e-7
0.035, -2.194e-7
0.034, -2.251e-7
0.033, -2.237e-7
0.032, -2.285e-7
0.031, -2.272e-7
0.030, -2.321e-7
0.029, -2.307e-7
0.028, -2.353e-7
0.027, -2.349e-7
0.026, -2.393e-7
0.025, -2.379e-7
0.024, -2.431e-7
0.023, -2.420e-7
0.022, -2.463e-7
0.021, -2.459e-7
0.020, -2.508e-7
0.019, -2.495e-7
0.018, -2.550e-7
0.017, -2.539e-7
0.016, -2.585e-7
0.015, -2.575e-7
0.014, -2.629e-7
0.013, -2.615e-7
0.012, -2.660e-7
0.011, -2.659e-7
0.010, -2.702e-7
0.009, -2.689e-7
0.008, -2.749e-7
0.007, -2.732e-7
0.006, -2.783e-7
0.005, -2.777e-7
0.004, -2.823e-7
0.003, -2.810e-7
0.002, -2.863e-7
0.001, -2.854e-7
-0.000, -2.895e-7
-0.001, -2.889e-7
-0.002, -2.944e-7
-0.003, -2.928e-7
-0.004, -2.980e-7
-0.005, -2.977e-7
-0.006, -3.024e-7
-0.007, -3.013e-7
-0.008, -3.072e-7
-0.009, -3.056e-7
-0.010, -3.107e-7
-0.011, -3.102e-7
-0.012, -3.151e-7
-0.013, -3.142e-7
-0.014, -3.196e-7
-0.015, -3.183e-7
-0.016, -3.235e-7
-0.017, -3.224e-7
-0.018, -3.279e-7
-0.019, -3.272e-7
-0.020, -3.319e-7
-0.021, -3.316e-7
-0.022, -3.361e-7
-0.023, -3.348e-7
-0.024, -3.404e-7
-0.025, -3.394e-7
-0.026, -3.440e-7
-0.027, -3.438e-7
-0.028, -3.493e-7
-0.029, -3.482e-7
-0.030, -3.535e-7
-0.031, -3.530e-7
-0.032, -3.578e-7
-0.033, -3.572e-7
-0.034, -3.626e-7
-0.035, -3.615e-7
-0.036, -3.662e-7
-0.037, -3.662e-7
-0.038, -3.715e-7
-0.039, -3.706e-7
-0.040, -3.763e-7
-0.041, -3.751e-7
-0.042, -3.796e-7
-0.043, -3.797e-7
-0.044, -3.848e-7
-0.045, -3.839e-7
-0.046, -3.894e-7
-0.047, -3.888e-7
-0.048, -3.934e-7
-0.049, -3.930e-7
-0.050, -3.992e-7
-0.051, -3.981e-7
-0.052, -4.030e-7
-0.053, -4.032e-7
-0.054, -4.081e-7
-0.055, -4.072e-7
-0.056, -4.132e-7
-0.057, -4.123e-7
-0.058, -4.176e-7
-0.059, -4.174e-7
-0.060, -4.224e-7
-0.061, -4.220e-7
-0.062, -4.271e-7
-0.063, -4.267e-7
-0.064, -4.322e-7
-0.065, -4.314e-7
-0.066, -4.369e-7
-0.067, -4.362e-7
-0.068, -4.413e-7
-0.069, -4.416e-7
-0.070, -4.465e-7
-0.071, -4.459e-7
-0.072, -4.521e-7
-0.073, -4.509e-7
-0.074, -4.564e-7
-0.075, -4.564e-7
-0.076, -4.616e-7
-0.077, -4.613e-7
-0.078, -4.669e-7
-0.079, -4.664e-7
-0.080, -4.717e-7
-0.081, -4.715e-7
-0.082, -4.770e-7
-0.083, -4.765e-7
-0.084, -4.814e-7
-0.085, -4.816e-7
-0.086, -4.866e-7
-0.087, -4.861e-7
-0.088, -4.922e-7
-0.089, -4.916e-7
-0.090, -4.970e-7
-0.091, -4.972e-7
-0.092, -5.022e-7
-0.093, -5.017e-7
-0.094, -5.079e-7
-0.095, -5.074e-7
-0.096, -5.132e-7
-0.097, -5.129e-7
-0.098, -5.191e-7
-0.099, -5.184e-7
-0.100, -5.236e-7
-0.101, -5.243e-7
-0.102, -5.287e-7
-0.103, -5.280e-7
-0.104, -5.349e-7
-0.105, -5.344e-7
-0.106, -5.397e-7
-0.107, -5.402e-7
-0.108, -5.455e-7
-0.109, -5.458e-7
-0.110, -5.512e-7
-0.111, -5.510e-7
-0.112, -5.566e-7
-0.113, -5.565e-7
-0.114, -5.628e-7
-0.115, -5.626e-7
-0.116, -5.686e-7
-0.117, -5.694e-7
-0.118, -5.741e-7
-0.119, -5.740e-7
-0.120, -5.803e-7
-0.121, -5.801e-7
-0.122, -5.855e-7
-0.123, -5.860e-7
-0.124, -5.922e-7
-0.125, -5.919e-7
-0.126, -5.979e-7
-0.127, -5.981e-7
-0.128, -6.038e-7
-0.129, -6.037e-7
-0.130, -6.102e-7
-0.131, -6.098e-7
-0.132, -6.162e-7
-0.133, -6.175e-7
-0.134, -6.227e-7
-0.135, -6.229e-7
-0.136, -6.292e-7
-0.137, -6.292e-7
-0.138, -6.347e-7
-0.139, -6.357e-7
-0.140, -6.414e-7
-0.141, -6.419e-7
-0.142, -6.480e-7
-0.143, -6.485e-7
-0.144, -6.542e-7
-0.145, -6.545e-7
-0.146, -6.610e-7
-0.147, -6.610e-7
-0.148, -6.676e-7
-0.149, -6.690e-7
-0.150, -6.742e-7
-0.151, -6.746e-7
-0.152, -6.814e-7
-0.153, -6.817e-7
-0.154, -6.877e-7
-0.155, -6.891e-7
-0.156, -6.951e-7
-0.157, -6.955e-7
-0.158, -7.020e-7
-0.159, -7.031e-7
-0.160, -7.090e-7
-0.161, -7.098e-7
-0.162, -7.168e-7
-0.163, -7.174e-7
-0.164, -7.233e-7
-0.165, -7.251e-7
-0.166, -7.310e-7
-0.167, -7.318e-7
-0.168, -7.386e-7
-0.169, -7.393e-7
-0.170, -7.451e-7
-0.171, -7.466e-7
-0.172, -7.532e-7
-0.173, -7.541e-7
-0.174, -7.611e-7
-0.175, -7.621e-7
-0.176, -7.684e-7
-0.177, -7.697e-7
-0.178, -7.766e-7
-0.179, -7.776e-7
-0.180, -7.840e-7
-0.181, -7.864e-7
-0.182, -7.925e-7
-0.183, -7.938e-7
-0.184, -8.010e-7
-0.185, -8.022e-7
-0.186, -8.089e-7
-0.187, -8.108e-7
-0.188, -8.174e-7
-0.189, -8.185e-7
-0.190, -8.253e-7
-0.191, -8.268e-7
-0.192, -8.342e-7
-0.193, -8.357e-7
-0.194, -8.432e-7
-0.195, -8.443e-7
-0.196, -8.510e-7
-0.197, -8.540e-7
-0.198, -8.609e-7
-0.199, -8.627e-7
-0.200, -8.698e-7
-0.201, -8.714e-7
-0.202, -8.783e-7
-0.203, -8.808e-7
-0.204, -8.883e-7
-0.205, -8.909e-7
-0.206, -8.981e-7
-0.207, -9.005e-7
-0.208, -9.070e-7
-0.209, -9.094e-7
-0.210, -9.172e-7
-0.211, -9.193e-7
-0.212, -9.262e-7
-0.213, -9.292e-7
-0.214, -9.363e-7
-0.215, -9.388e-7
-0.216, -9.473e-7
-0.217, -9.493e-7
-0.218, -9.566e-7
-0.219, -9.602e-7
-0.220, -9.673e-7
-0.221, -9.691e-7
-0.222, -9.771e-7
-0.223, -9.800e-7
-0.224, -9.879e-7
-0.225, -9.905e-7
-0.226, -9.994e-7
-0.227, -1.002e-6
-0.228, -1.010e-6
-0.229, -1.013e-6
-0.230, -1.021e-6
-0.231, -1.024e-6
-0.232, -1.033e-6
-0.233, -1.035e-6
-0.234, -1.043e-6
-0.235, -1.047e-6
-0.236, -1.055e-6
-0.237, -1.059e-6
-0.238, -1.066e-6
-0.239, -1.070e-6
-0.240, -1.078e-6
-0.241, -1.081e-6
-0.242, -1.090e-6
-0.243, -1.093e-6
-0.244, -1.102e-6
-0.245, -1.107e-6
-0.246, -1.114e-6
-0.247, -1.118e-6
-0.248, -1.128e-6
-0.249, -1.131e-6
-0.250, -1.140e-6
-0.251, -1.144e-6
-0.252, -1.153e-6
-0.253, -1.157e-6
-0.254, -1.166e-6
-0.255, -1.170e-6
-0.256, -1.179e-6
-0.257, -1.184e-6
-0.258, -1.193e-6
-0.259, -1.197e-6
-0.260, -1.206e-6
-0.261, -1.212e-6
-0.262, -1.221e-6
-0.263, -1.226e-6
-0.264, -1.236e-6
-0.265, -1.240e-6
-0.266, -1.249e-6
-0.267, -1.256e-6
-0.268, -1.265e-6
-0.269, -1.270e-6
-0.270, -1.280e-6
-0.271, -1.286e-6
-0.272, -1.295e-6
-0.273, -1.301e-6
-0.274, -1.312e-6
-0.275, -1.317e-6
-0.276, -1.327e-6
-0.277, -1.334e-6
-0.278, -1.344e-6
-0.279, -1.350e-6
-0.280, -1.361e-6
-0.281, -1.367e-6
-0.282, -1.378e-6
-0.283, -1.385e-6
-0.284, -1.396e-6
-0.285, -1.402e-6
-0.286, -1.413e-6
-0.287, -1.421e-6
-0.288, -1.432e-6
-0.289, -1.439e-6
-0.290, -1.452e-6
-0.291, -1.458e-6
-0.292, -1.470e-6
-0.293, -1.479e-6
-0.294, -1.490e-6
-0.295, -1.498e-6
-0.296, -1.511e-6
-0.297, -1.519e-6
-0.298, -1.531e-6
-0.299, -1.541e-6
-0.300, -1.554e-6
-0.301, -1.562e-6
-0.302, -1.575e-6
-0.303, -1.585e-6
-0.304, -1.598e-6
-0.305, -1.607e-6
-0.306, -1.622e-6
-0.307, -1.631e-6
-0.308, -1.644e-6
-0.309, -1.656e-6
-0.310, -1.669e-6
-0.311, -1.679e-6
-0.312, -1.695e-6
-0.313, -1.705e-6
-0.314, -1.720e-6
-0.315, -1.732e-6
-0.316, -1.747e-6
-0.317, -1.758e-6
-0.318, -1.775e-6
-0.319, -1.787e-6
-0.320, -1.803e-6
-0.321, -1.815e-6
-0.322, -1.832e-6
-0.323, -1.844e-6
-0.324, -1.860e-6
-0.325, -1.874e-6
-0.326, -1.891e-6
-0.327, -1.903e-6
-0.328, -1.921e-6
-0.329, -1.935e-6
-0.330, -1.952e-6
-0.331, -1.966e-6
-0.332, -1.984e-6
-0.333, -1.998e-6
-0.334, -2.015e-6
-0.335, -2.031e-6
-0.336, -2.048e-6
-0.337, -2.062e-6
-0.338, -2.080e-6
-0.339, -2.095e-6
-0.340, -2.112e-6
-0.341, -2.128e-6
-0.342, -2.146e-6
-0.343, -2.160e-6
-0.344, -2.179e-6
-0.345, -2.194e-6
-0.346, -2.212e-6
-0.347, -2.227e-6
-0.348, -2.245e-6
-0.349, -2.260e-6
-0.350, -2.278e-6
-0.351, -2.293e-6
-0.352, -2.310e-6
-0.353, -2.324e-6
-0.354, -2.343e-6
-0.355, -2.357e-6
-0.356, -2.372e-6
-0.357, -2.387e-6
-0.358, -2.403e-6
-0.359, -2.415e-6
-0.360, -2.432e-6
-0.361, -2.444e-6
-0.362, -2.458e-6
-0.363, -2.471e-6
-0.364, -2.485e-6
-0.365, -2.496e-6
-0.366, -2.510e-6
-0.367, -2.521e-6
-0.368, -2.532e-6
-0.369, -2.541e-6
-0.370, -2.553e-6
-0.371, -2.561e-6
-0.372, -2.571e-6
-0.373, -2.579e-6
-0.374, -2.588e-6
-0.375, -2.594e-6
-0.376, -2.603e-6
-0.377, -2.608e-6
-0.378, -2.616e-6
-0.379, -2.621e-6
-0.380, -2.627e-6
-0.381, -2.631e-6
-0.382, -2.637e-6
-0.383, -2.640e-6
-0.384, -2.645e-6
-0.385, -2.647e-6
-0.386, -2.652e-6
-0.387, -2.652e-6
-0.388, -2.656e-6
-0.389, -2.658e-6
-0.390, -2.662e-6
-0.391, -2.663e-6
-0.392, -2.667e-6
-0.393, -2.668e-6
-0.394, -2.671e-6
-0.395, -2.672e-6
-0.396, -2.675e-6
-0.397, -2.675e-6
-0.398, -2.679e-6
-0.399, -2.680e-6
-0.400, -2.682e-6
-0.401, -2.683e-6
-0.402, -2.687e-6
-0.403, -2.687e-6
-0.404, -2.690e-6
-0.405, -2.692e-6
-0.406, -2.695e-6
-0.407, -2.696e-6
-0.408, -2.701e-6
-0.409, -2.702e-6
-0.410, -2.705e-6
-0.411, -2.707e-6
-0.412, -2.712e-6
-0.413, -2.714e-6
-0.414, -2.719e-6
-0.415, -2.722e-6
-0.416, -2.727e-6
-0.417, -2.729e-6
-0.418, -2.735e-6
-0.419, -2.737e-6
-0.420, -2.741e-6
-0.421, -2.746e-6
-0.422, -2.751e-6
-0.423, -2.754e-6
-0.424, -2.762e-6
-0.425, -2.764e-6
-0.426, -2.769e-6
-0.427, -2.773e-6
-0.428, -2.780e-6
-0.429, -2.783e-6
-0.430, -2.789e-6
-0.431, -2.793e-6
-0.432, -2.799e-6
-0.433, -2.803e-6
-0.434, -2.810e-6
-0.435, -2.813e-6
-0.436, -2.820e-6
-0.437, -2.824e-6
-0.438, -2.829e-6
-0.439, -2.833e-6
-0.440, -2.840e-6
-0.441, -2.844e-6
-0.442, -2.851e-6
-0.443, -2.856e-6
-0.444, -2.862e-6
-0.445, -2.865e-6
-0.446, -2.871e-6
-0.447, -2.876e-6
-0.448, -2.882e-6
-0.449, -2.886e-6
-0.450, -2.893e-6
-0.451, -2.896e-6
-0.452, -2.902e-6
-0.453, -2.907e-6
-0.454, -2.912e-6
-0.455, -2.915e-6
-0.456, -2.922e-6
-0.457, -2.926e-6
-0.458, -2.931e-6
-0.459, -2.934e-6
-0.460, -2.941e-6
-0.461, -2.944e-6
-0.462, -2.950e-6
-0.463, -2.954e-6
-0.464, -2.958e-6
-0.465, -2.961e-6
-0.466, -2.967e-6
-0.467, -2.970e-6
-0.468, -2.974e-6
-0.469, -2.978e-6
-0.470, -2.982e-6
-0.471, -2.984e-6
-0.472, -2.991e-6
-0.473, -2.993e-6
-0.474, -2.997e-6
-0.475, -3.000e-6
-0.476, -3.004e-6
-0.477, -3.005e-6
-0.478, -3.010e-6
-0.479, -3.012e-6
-0.480, -3.017e-6
-0.481, -3.018e-6
-0.482, -3.023e-6
-0.483, -3.023e-6
-0.484, -3.026e-6
-0.485, -3.028e-6
-0.486, -3.031e-6
-0.487, -3.031e-6
-0.488, -3.036e-6
-0.489, -3.035e-6
-0.490, -3.038e-6
-0.491, -3.040e-6
-0.492, -3.042e-6
-0.493, -3.043e-6
-0.494, -3.045e-6
-0.495, -3.046e-6
-0.496, -3.048e-6
-0.497, -3.047e-6
-0.498, -3.050e-6
-0.499, -3.050e-6
-0.500, -3.051e-6
-0.501, -3.052e-6
-0.502, -3.053e-6
-0.503, -3.052e-6
-0.504, -3.054e-6
-0.505, -3.053e-6
-0.506, -3.054e-6
-0.507, -3.053e-6
-0.508, -3.054e-6
-0.509, -3.052e-6
-0.510, -3.053e-6
-0.511, -3.052e-6
-0.512, -3.051e-6
-0.513, -3.049e-6
-0.514, -3.050e-6
-0.515, -3.047e-6
-0.516, -3.047e-6
-0.517, -3.046e-6
-0.518, -3.045e-6
-0.519, -3.043e-6
-0.520, -3.043e-6
-0.521, -3.040e-6
-0.522, -3.039e-6
-0.523, -3.037e-6
-0.524, -3.036e-6
-0.525, -3.033e-6
-0.526, -3.033e-6
-0.527, -3.030e-6
-0.528, -3.029e-6
-0.529, -3.025e-6
-0.530, -3.024e-6
-0.531, -3.020e-6
-0.532, -3.019e-6
-0.533, -3.016e-6
-0.534, -3.014e-6
-0.535, -3.009e-6
-0.536, -3.008e-6
-0.537, -3.004e-6
-0.538, -3.002e-6
-0.539, -2.998e-6
-0.540, -2.997e-6
-0.541, -2.991e-6
-0.542, -2.989e-6
-0.543, -2.985e-6
-0.544, -2.982e-6
-0.545, -2.978e-6
-0.546, -2.976e-6
-0.547, -2.971e-6
-0.548, -2.967e-6
-0.549, -2.964e-6
-0.550, -2.961e-6
-0.551, -2.955e-6
-0.552, -2.954e-6
-0.553, -2.948e-6
-0.554, -2.944e-6
-0.555, -2.940e-6
-0.556, -2.936e-6
-0.557, -2.930e-6
-0.558, -2.928e-6
-0.559, -2.923e-6
-0.560, -2.919e-6
-0.561, -2.913e-6
-0.562, -2.911e-6
-0.563, -2.905e-6
-0.564, -2.901e-6
-0.565, -2.896e-6
-0.566, -2.892e-6
-0.567, -2.886e-6
-0.568, -2.883e-6
-0.569, -2.877e-6
-0.570, -2.873e-6
-0.571, -2.867e-6
-0.572, -2.863e-6
-0.573, -2.856e-6
-0.574, -2.853e-6
-0.575, -2.847e-6
-0.576, -2.842e-6
-0.577, -2.837e-6
-0.578, -2.833e-6
-0.579, -2.826e-6
-0.580, -2.821e-6
-0.581, -2.816e-6
-0.582, -2.812e-6
-0.583, -2.805e-6
-0.584, -2.801e-6
-0.585, -2.795e-6
-0.586, -2.790e-6
-0.587, -2.784e-6
-0.588, -2.780e-6
-0.589, -2.773e-6
-0.590, -2.768e-6
-0.591, -2.762e-6
-0.592, -2.757e-6
-0.593, -2.750e-6
-0.594, -2.746e-6
-0.595, -2.739e-6
-0.596, -2.734e-6
-0.597, -2.729e-6
-0.598, -2.724e-6
-0.599, -2.716e-6
-0.600, -2.713e-6
-0.601, -2.706e-6
-0.602, -2.702e-6
-0.603, -2.695e-6
-0.604, -2.690e-6
-0.605, -2.683e-6
-0.606, -2.679e-6
-0.607, -2.673e-6
-0.608, -2.668e-6
-0.609, -2.661e-6
-0.610, -2.657e-6
-0.611, -2.649e-6
-0.612, -2.644e-6
-0.613, -2.638e-6
-0.614, -2.634e-6
-0.615, -2.627e-6
-0.616, -2.623e-6
-0.617, -2.616e-6
-0.618, -2.610e-6
-0.619, -2.604e-6
-0.620, -2.600e-6
-0.621, -2.593e-6
-0.622, -2.588e-6
-0.623, -2.582e-6
-0.624, -2.576e-6
-0.625, -2.569e-6
-0.626, -2.565e-6
-0.627, -2.558e-6
-0.628, -2.553e-6
-0.629, -2.548e-6
-0.630, -2.542e-6
-0.631, -2.535e-6
-0.632, -2.531e-6
-0.633, -2.524e-6
-0.634, -2.519e-6
-0.635, -2.513e-6
-0.636, -2.509e-6
-0.637, -2.501e-6
-0.638, -2.497e-6
-0.639, -2.491e-6
-0.640, -2.486e-6
-0.641, -2.479e-6
-0.642, -2.475e-6
-0.643, -2.468e-6
-0.644, -2.464e-6
-0.645, -2.459e-6
-0.646, -2.454e-6
-0.647, -2.447e-6
-0.648, -2.444e-6
-0.649, -2.437e-6
-0.650, -2.432e-6
-0.651, -2.426e-6
-0.652, -2.421e-6
-0.653, -2.415e-6
-0.654, -2.411e-6
-0.655, -2.405e-6
-0.656, -2.400e-6
-0.657, -2.393e-6
-0.658, -2.390e-6
-0.659, -2.384e-6
-0.660, -2.379e-6
-0.661, -2.375e-6
-0.662, -2.370e-6
-0.663, -2.364e-6
-0.664, -2.361e-6
-0.665, -2.355e-6
-0.666, -2.350e-6
-0.667, -2.344e-6
-0.668, -2.340e-6
-0.669, -2.334e-6
-0.670, -2.331e-6
-0.671, -2.325e-6
-0.672, -2.321e-6
-0.673, -2.315e-6
-0.674, -2.312e-6
-0.675, -2.306e-6
-0.676, -2.302e-6
-0.677, -2.297e-6
-0.678, -2.294e-6
-0.679, -2.287e-6
-0.680, -2.284e-6
-0.681, -2.279e-6
-0.682, -2.274e-6
-0.683, -2.270e-6
-0.684, -2.266e-6
-0.685, -2.260e-6
-0.686, -2.257e-6
-0.687, -2.252e-6
-0.688, -2.248e-6
-0.689, -2.243e-6
-0.690, -2.240e-6
-0.691, -2.234e-6
-0.692, -2.230e-6
-0.693, -2.226e-6
-0.694, -2.222e-6
-0.695, -2.217e-6
-0.696, -2.214e-6
-0.697, -2.209e-6
-0.698, -2.205e-6
-0.699, -2.201e-6
-0.700, -2.198e-6
-0.701, -2.192e-6
-0.702, -2.190e-6
-0.703, -2.185e-6
-0.704, -2.181e-6
-0.705, -2.176e-6
-0.706, -2.174e-6
-0.707, -2.168e-6
-0.708, -2.165e-6
-0.709, -2.161e-6
-0.710, -2.158e-6
-0.711, -2.152e-6
-0.712, -2.151e-6
-0.713, -2.145e-6
-0.714, -2.142e-6
-0.715, -2.138e-6
-0.716, -2.135e-6
-0.717, -2.129e-6
-0.718, -2.126e-6
-0.719, -2.122e-6
-0.720, -2.119e-6
-0.721, -2.114e-6
-0.722, -2.112e-6
-0.723, -2.107e-6
-0.724, -2.105e-6
-0.725, -2.101e-6
-0.726, -2.098e-6
-0.727, -2.093e-6
-0.728, -2.092e-6
-0.729, -2.087e-6
-0.730, -2.084e-6
-0.731, -2.080e-6
-0.732, -2.078e-6
-0.733, -2.072e-6
-0.734, -2.070e-6
-0.735, -2.066e-6
-0.736, -2.064e-6
-0.737, -2.060e-6
-0.738, -2.058e-6
-0.739, -2.053e-6
-0.740, -2.050e-6
-0.741, -2.048e-6
-0.742, -2.045e-6
-0.743, -2.041e-6
-0.744, -2.040e-6
-0.745, -2.035e-6
-0.746, -2.032e-6
-0.747, -2.029e-6
-0.748, -2.027e-6
-0.749, -2.023e-6
-0.750, -2.021e-6
-0.751, -2.018e-6
-0.752, -2.015e-6
-0.753, -2.011e-6
-0.754, -2.010e-6
-0.755, -2.005e-6
-0.756, -2.003e-6
-0.757, -2.001e-6
-0.758, -1.998e-6
-0.759, -1.995e-6
-0.760, -1.994e-6
-0.761, -1.990e-6
-0.762, -1.988e-6
-0.763, -1.985e-6
-0.764, -1.983e-6
-0.765, -1.979e-6
-0.766, -1.978e-6
-0.767, -1.974e-6
-0.768, -1.973e-6
-0.769, -1.969e-6
-0.770, -1.968e-6
-0.771, -1.964e-6
-0.772, -1.962e-6
-0.773, -1.961e-6
-0.774, -1.959e-6
-0.775, -1.956e-6
-0.776, -1.956e-6
-0.777, -1.951e-6
-0.778, -1.950e-6
-0.779, -1.947e-6
-0.780, -1.947e-6
-0.781, -1.943e-6
-0.782, -1.942e-6
-0.783, -1.940e-6
-0.784, -1.938e-6
-0.785, -1.935e-6
-0.786, -1.935e-6
-0.787, -1.932e-6
-0.788, -1.930e-6
-0.789, -1.928e-6
-0.790, -1.926e-6
-0.791, -1.924e-6
-0.792, -1.924e-6
-0.793, -1.920e-6
-0.794, -1.919e-6
-0.795, -1.916e-6
-0.796, -1.915e-6
-0.797, -1.913e-6
-0.798, -1.912e-6
-0.799, -1.909e-6
-0.800, -1.908e-6
-0.801, -1.905e-6
-0.802, -1.905e-6
-0.803, -1.902e-6
-0.804, -1.901e-6
-0.805, -1.900e-6
-0.806, -1.899e-6
-0.807, -1.896e-6
-0.808, -1.897e-6
-0.809, -1.894e-6
-0.810, -1.892e-6
-0.811, -1.892e-6
-0.812, -1.891e-6
-0.813, -1.889e-6
-0.814, -1.888e-6
-0.815, -1.886e-6
-0.816, -1.884e-6
-0.817, -1.883e-6
-0.818, -1.883e-6
-0.819, -1.882e-6
-0.820, -1.881e-6
-0.821, -1.880e-6
-0.822, -1.879e-6
-0.823, -1.876e-6
-0.824, -1.877e-6
-0.825, -1.875e-6
-0.826, -1.874e-6
-0.827, -1.874e-6
-0.828, -1.873e-6
-0.829, -1.871e-6
-0.830, -1.871e-6
-0.831, -1.870e-6
-0.832, -1.870e-6
-0.833, -1.868e-6
-0.834, -1.869e-6
-0.835, -1.867e-6
-0.836, -1.866e-6
-0.837, -1.866e-6
-0.838, -1.866e-6
-0.839, -1.864e-6
-0.840, -1.866e-6
-0.841, -1.864e-6
-0.842, -1.863e-6
-0.843, -1.863e-6
-0.844, -1.863e-6
-0.845, -1.862e-6
-0.846, -1.863e-6
-0.847, -1.862e-6
-0.848, -1.862e-6
-0.849, -1.861e-6
-0.850, -1.862e-6
-0.851, -1.861e-6
-0.852, -1.862e-6
-0.853, -1.862e-6
-0.854, -1.862e-6
-0.855, -1.861e-6
-0.856, -1.863e-6
-0.857, -1.862e-6
-0.858, -1.863e-6
-0.859, -1.864e-6
-0.860, -1.864e-6
-0.861, -1.864e-6
-0.862, -1.865e-6
-0.863, -1.866e-6
-0.864, -1.867e-6
-0.865, -1.866e-6
-0.866, -1.868e-6
-0.867, -1.868e-6
-0.868, -1.869e-6
-0.869, -1.870e-6
-0.870, -1.872e-6
-0.871, -1.872e-6
-0.872, -1.874e-6
-0.873, -1.874e-6
-0.874, -1.875e-6
-0.875, -1.877e-6
-0.876, -1.878e-6
-0.877, -1.880e-6
-0.878, -1.882e-6
-0.879, -1.882e-6
-0.880, -1.884e-6
-0.881, -1.885e-6
-0.882, -1.888e-6
-0.883, -1.889e-6
-0.884, -1.891e-6
-0.885, -1.893e-6
-0.886, -1.895e-6
-0.887, -1.895e-6
-0.888, -1.899e-6
-0.889, -1.900e-6
-0.890, -1.903e-6
-0.891, -1.905e-6
-0.892, -1.908e-6
-0.893, -1.909e-6
-0.894, -1.912e-6
-0.895, -1.914e-6
-0.896, -1.917e-6
-0.897, -1.919e-6
-0.898, -1.923e-6
-0.899, -1.925e-6
-0.900, -1.928e-6
-0.901, -1.933e-6
-0.902, -1.935e-6
-0.903, -1.939e-6
-0.904, -1.942e-6
-0.905, -1.945e-6
-0.906, -1.948e-6
-0.907, -1.952e-6
-0.908, -1.956e-6
-0.909, -1.959e-6
-0.910, -1.963e-6
-0.911, -1.967e-6
-0.912, -1.970e-6
-0.913, -1.974e-6
-0.914, -1.979e-6
-0.915, -1.983e-6
-0.916, -1.987e-6
-0.917, -1.992e-6
-0.918, -1.996e-6
-0.919, -2.000e-6
-0.920, -2.006e-6
-0.921, -2.009e-6
-0.922, -2.013e-6
-0.923, -2.018e-6
-0.924, -2.024e-6
-0.925, -2.028e-6
-0.926, -2.034e-6
-0.927, -2.039e-6
-0.928, -2.044e-6
-0.929, -2.049e-6
-0.930, -2.055e-6
-0.931, -2.060e-6
-0.932, -2.065e-6
-0.933, -2.072e-6
-0.934, -2.078e-6
-0.935, -2.084e-6
-0.936, -2.091e-6
-0.937, -2.096e-6
-0.938, -2.103e-6
-0.939, -2.110e-6
-0.940, -2.117e-6
-0.941, -2.124e-6
-0.942, -2.132e-6
-0.943, -2.138e-6
-0.944, -2.146e-6
-0.945, -2.152e-6
-0.946, -2.161e-6
-0.947, -2.168e-6
-0.948, -2.176e-6
-0.949, -2.185e-6
-0.950, -2.193e-6
-0.951, -2.200e-6
-0.952, -2.210e-6
-0.953, -2.217e-6
-0.954, -2.226e-6
-0.955, -2.236e-6
-0.956, -2.245e-6
-0.957, -2.254e-6
-0.958, -2.264e-6
-0.959, -2.274e-6
-0.960, -2.284e-6
-0.961, -2.294e-6
-0.962, -2.307e-6
-0.963, -2.316e-6
-0.964, -2.325e-6
-0.965, -2.337e-6
-0.966, -2.348e-6
-0.967, -2.359e-6
-0.968, -2.373e-6
-0.969, -2.384e-6
-0.970, -2.396e-6
-0.971, -2.409e-6
-0.972, -2.422e-6
-0.973, -2.434e-6
-0.974, -2.446e-6
-0.975, -2.459e-6
-0.976, -2.472e-6
-0.977, -2.485e-6
-0.978, -2.501e-6
-0.979, -2.514e-6
-0.980, -2.528e-6
-0.981, -2.543e-6
-0.982, -2.558e-6
-0.983, -2.574e-6
-0.984, -2.591e-6
-0.985, -2.606e-6
-0.986, -2.623e-6
-0.987, -2.640e-6
-0.988, -2.655e-6
-0.989, -2.672e-6
-0.990, -2.692e-6
-0.991, -2.710e-6
-0.992, -2.729e-6
-0.993, -2.748e-6
-0.994, -2.769e-6
-0.995, -2.800e-6
-0.996, -2.819e-6
-0.997, -2.839e-6
-0.998, -2.854e-6
-0.999, -2.870e-6

Segment 2:
-1.000, -2.842e-6
-0.999, -2.726e-6
-0.998, -2.632e-6
-0.997, -2.548e-6
-0.996, -2.473e-6
-0.995, -2.403e-6
-0.994, -2.338e-6
-0.993, -2.276e-6
-0.992, -2.219e-6
-0.991, -2.165e-6
-0.990, -2.113e-6
-0.989, -2.064e-6
-0.988, -2.020e-6
-0.987, -1.973e-6
-0.986, -1.932e-6
-0.985, -1.891e-6
-0.984, -1.853e-6
-0.983, -1.815e-6
-0.982, -1.780e-6
-0.981, -1.744e-6
-0.980, -1.712e-6
-0.979, -1.680e-6
-0.978, -1.649e-6
-0.977, -1.618e-6
-0.976, -1.590e-6
-0.975, -1.560e-6
-0.974, -1.533e-6
-0.973, -1.506e-6
-0.972, -1.482e-6
-0.971, -1.455e-6
-0.970, -1.432e-6
-0.969, -1.409e-6
-0.968, -1.387e-6
-0.967, -1.364e-6
-0.966, -1.343e-6
-0.965, -1.322e-6
-0.964, -1.303e-6
-0.963, -1.282e-6
-0.962, -1.263e-6
-0.961, -1.244e-6
-0.960, -1.227e-6
-0.959, -1.208e-6
-0.958, -1.190e-6
-0.957, -1.172e-6
-0.956, -1.157e-6
-0.955, -1.138e-6
-0.954, -1.123e-6
-0.953, -1.105e-6
-0.952, -1.090e-6
-0.951, -1.074e-6
-0.950, -1.061e-6
-0.949, -1.044e-6
-0.948, -1.031e-6
-0.947, -1.015e-6
-0.946, -1.001e-6
-0.945, -9.858e-7
-0.944, -9.730e-7
-0.943, -9.590e-7
-0.942, -9.461e-7
-0.941, -9.326e-7
-0.940, -9.213e-7
-0.939, -9.075e-7
-0.938, -8.967e-7
-0.937, -8.839e-7
-0.936, -8.725e-7
-0.935, -8.608e-7
-0.934, -8.506e-7
-0.933, -8.389e-7
-0.932, -8.286e-7
-0.931, -8.180e-7
-0.930, -8.084e-7
-0.929, -7.970e-7
-0.928, -7.885e-7
-0.927, -7.774e-7
-0.926, -7.680e-7
-0.925, -7.581e-7
-0.924, -7.496e-7
-0.923, -7.387e-7
-0.922, -7.319e-7
-0.921, -7.229e-7
-0.920, -7.131e-7
-0.919, -7.042e-7
-0.918, -6.970e-7
-0.917, -6.870e-7
-0.916, -6.801e-7
-0.915, -6.711e-7
-0.914, -6.637e-7
-0.913, -6.549e-7
-0.912, -6.492e-7
-0.911, -6.405e-7
-0.910, -6.330e-7
-0.909, -6.255e-7
-0.908, -6.196e-7
-0.907, -6.102e-7
-0.906, -6.046e-7
-0.905, -5.972e-7
-0.904, -5.907e-7
-0.903, -5.834e-7
-0.902, -5.778e-7
-0.901, -5.699e-7
-0.900, -5.648e-7
-0.899, -5.577e-7
-0.898, -5.521e-7
-0.897, -5.452e-7
-0.896, -5.404e-7
-0.895, -5.336e-7
-0.894, -5.283e-7
-0.893, -5.224e-7
-0.892, -5.176e-7
-0.891, -5.102e-7
-0.890, -5.059e-7
-0.889, -4.997e-7
-0.888, -4.950e-7
-0.887, -4.892e-7
-0.886, -4.853e-7
-0.885, -4.787e-7
-0.884, -4.752e-7
-0.883, -4.694e-7
-0.882, -4.653e-7
-0.881, -4.593e-7
-0.880, -4.555e-7
-0.879, -4.503e-7
-0.878, -4.459e-7
-0.877, -4.408e-7
-0.876, -4.372e-7
-0.875, -4.312e-7
-0.874, -4.287e-7
-0.873, -4.235e-7
-0.872, -4.195e-7
-0.871, -4.146e-7
-0.870, -4.118e-7
-0.869, -4.064e-7
-0.868, -4.031e-7
-0.867, -3.985e-7
-0.866, -3.953e-7
-0.865, -3.905e-7
-0.864, -3.877e-7
-0.863, -3.832e-7
-0.862, -3.802e-7
-0.861, -3.764e-7
-0.860, -3.739e-7
-0.859, -3.689e-7
-0.858, -3.664e-7
-0.857, -3.622e-7
-0.856, -3.591e-7
-0.855, -3.552e-7
-0.854, -3.535e-7
-0.853, -3.486e-7
-0.852, -3.460e-7
-0.851, -3.419e-7
-0.850, -3.399e-7
-0.849, -3.358e-7
-0.848, -3.343e-7
-0.847, -3.305e-7
-0.846, -3.278e-7
-0.845, -3.247e-7
-0.844, -3.232e-7
-0.843, -3.180e-7
-0.842, -3.167e-7
-0.841, -3.133e-7
-0.840, -3.109e-7
-0.839, -3.078e-7
-0.838, -3.055e-7
-0.837, -3.017e-7
-0.836, -3.003e-7
-0.835, -2.970e-7
-0.834, -2.952e-7
-0.833, -2.916e-7
-0.832, -2.900e-7
-0.831, -2.868e-7
-0.830, -2.847e-7
-0.829, -2.824e-7
-0.828, -2.806e-7
-0.827, -2.771e-7
-0.826, -2.760e-7
-0.825, -2.730e-7
-0.824, -2.708e-7
-0.823, -2.682e-7
-0.822, -2.669e-7
-0.821, -2.637e-7
-0.820, -2.626e-7
-0.819, -2.591e-7
-0.818, -2.581e-7
-0.817, -2.551e-7
-0.816, -2.543e-7
-0.815, -2.513e-7
-0.814, -2.495e-7
-0.813, -2.469e-7
-0.812, -2.458e-7
-0.811, -2.427e-7
-0.810, -2.423e-7
-0.809, -2.396e-7
-0.808, -2.379e-7
-0.807, -2.362e-7
-0.806, -2.351e-7
-0.805, -2.321e-7
-0.804, -2.313e-7
-0.803, -2.293e-7
-0.802, -2.282e-7
-0.801, -2.256e-7
-0.800, -2.250e-7
-0.799, -2.224e-7
-0.798, -2.210e-7
-0.797, -2.190e-7
-0.796, -2.184e-7
-0.795, -2.153e-7
-0.794, -2.153e-7
-0.793, -2.130e-7
-0.792, -2.117e-7
-0.791, -2.099e-7
-0.790, -2.092e-7
-0.789, -2.065e-7
-0.788, -2.061e-7
-0.787, -2.037e-7
-0.786, -2.033e-7
-0.785, -2.008e-7
-0.784, -2.003e-7
-0.783, -1.983e-7
-0.782, -1.967e-7
-0.781, -1.952e-7
-0.780, -1.952e-7
-0.779, -1.927e-7
-0.778, -1.926e-7
-0.777, -1.911e-7
-0.776, -1.903e-7
-0.775, -1.886e-7
-0.774, -1.877e-7
-0.773, -1.858e-7
-0.772, -1.854e-7
-0.771, -1.835e-7
-0.770, -1.831e-7
-0.769, -1.814e-7
-0.768, -1.809e-7
-0.767, -1.794e-7
-0.766, -1.784e-7
-0.765, -1.771e-7
-0.764, -1.765e-7
-0.763, -1.741e-7
-0.762, -1.741e-7
-0.761, -1.723e-7
-0.760, -1.714e-7
-0.759, -1.698e-7
-0.758, -1.696e-7
-0.757, -1.676e-7
-0.756, -1.671e-7
-0.755, -1.657e-7
-0.754, -1.653e-7
-0.753, -1.636e-7
-0.752, -1.634e-7
-0.751, -1.613e-7
-0.750, -1.608e-7
-0.749, -1.594e-7
-0.748, -1.594e-7
-0.747, -1.570e-7
-0.746, -1.574e-7
-0.745, -1.559e-7
-0.744, -1.552e-7
-0.743, -1.541e-7
-0.742, -1.541e-7
-0.741, -1.520e-7
-0.740, -1.524e-7
-0.739, -1.507e-7
-0.738, -1.500e-7
-0.737, -1.487e-7
-0.736, -1.487e-7
-0.735, -1.469e-7
-0.734, -1.463e-7
-0.733, -1.452e-7
-0.732, -1.456e-7
-0.731, -1.430e-7
-0.730, -1.435e-7
-0.729, -1.420e-7
-0.728, -1.413e-7
-0.727, -1.405e-7
-0.726, -1.402e-7
-0.725, -1.384e-7
-0.724, -1.384e-7
-0.723, -1.371e-7
-0.722, -1.369e-7
-0.721, -1.353e-7
-0.720, -1.359e-7
-0.719, -1.345e-7
-0.718, -1.340e-7
-0.717, -1.333e-7
-0.716, -1.332e-7
-0.715, -1.311e-7
-0.714, -1.316e-7
-0.713, -1.305e-7
-0.712, -1.298e-7
-0.711, -1.287e-7
-0.710, -1.287e-7
-0.709, -1.271e-7
-0.708, -1.271e-7
-0.707, -1.263e-7
-0.706, -1.259e-7
-0.705, -1.242e-7
-0.704, -1.246e-7
-0.703, -1.232e-7
-0.702, -1.231e-7
-0.701, -1.220e-7
-0.700, -1.220e-7
-0.699, -1.199e-7
-0.698, -1.206e-7
-0.697, -1.196e-7
-0.696, -1.190e-7
-0.695, -1.182e-7
-0.694, -1.182e-7
-0.693, -1.167e-7
-0.692, -1.170e-7
-0.691, -1.155e-7
-0.690, -1.155e-7
-0.689, -1.140e-7
-0.688, -1.145e-7
-0.687, -1.133e-7
-0.686, -1.129e-7
-0.685, -1.119e-7
-0.684, -1.122e-7
-0.683, -1.106e-7
-0.682, -1.111e-7
-0.681, -1.099e-7
-0.680, -1.093e-7
-0.679, -1.087e-7
-0.678, -1.090e-7
-0.677, -1.074e-7
-0.676, -1.076e-7
-0.675, -1.067e-7
-0.674, -1.068e-7
-0.673, -1.053e-7
-0.672, -1.056e-7
-0.671, -1.046e-7
-0.670, -1.041e-7
-0.669, -1.037e-7
-0.668, -1.038e-7
-0.667, -1.018e-7
-0.666, -1.026e-7
-0.665, -1.014e-7
-0.664, -1.012e-7
-0.663, -1.002e-7
-0.662, -1.006e-7
-0.661, -9.902e-8
-0.660, -9.937e-8
-0.659, -9.832e-8
-0.658, -9.818e-8
-0.657, -9.694e-8
-0.656, -9.735e-8
-0.655, -9.639e-8
-0.654, -9.612e-8
-0.653, -9.524e-8
-0.652, -9.552e-8
-0.651, -9.395e-8
-0.650, -9.440e-8
-0.649, -9.343e-8
-0.648, -9.284e-8
-0.647, -9.220e-8
-0.646, -9.255e-8
-0.645, -9.079e-8
-0.644, -9.129e-8
-0.643, -9.056e-8
-0.642, -9.030e-8
-0.641, -8.897e-8
-0.640, -8.951e-8
-0.639, -8.871e-8
-0.638, -8.814e-8
-0.637, -8.761e-8
-0.636, -8.814e-8
-0.635, -8.614e-8
-0.634, -8.668e-8
-0.633, -8.587e-8
-0.632, -8.538e-8
-0.631, -8.494e-8
-0.630, -8.499e-8
-0.629, -8.405e-8
-0.628, -8.387e-8
-0.627, -8.314e-8
-0.626, -8.346e-8
-0.625, -8.217e-8
-0.624, -8.231e-8
-0.623, -8.173e-8
-0.622, -8.126e-8
-0.621, -8.069e-8
-0.620, -8.098e-8
-0.619, -7.943e-8
-0.618, -8.030e-8
-0.617, -7.929e-8
-0.616, -7.885e-8
-0.615, -7.825e-8
-0.614, -7.809e-8
-0.613, -7.691e-8
-0.612, -7.699e-8
-0.611, -7.677e-8
-0.610, -7.634e-8
-0.609, -7.543e-8
-0.608, -7.543e-8
-0.607, -7.494e-8
-0.606, -7.431e-8
-0.605, -7.380e-8
-0.604, -7.387e-8
-0.603, -7.262e-8
-0.602, -7.312e-8
-0.601, -7.219e-8
-0.600, -7.140e-8
-0.599, -7.122e-8
-0.598, -7.155e-8
-0.597, -7.028e-8
-0.596, -7.055e-8
-0.595, -6.970e-8
-0.594, -6.948e-8
-0.593, -6.876e-8
-0.592, -6.898e-8
-0.591, -6.809e-8
-0.590, -6.759e-8
-0.589, -6.718e-8
-0.588, -6.760e-8
-0.587, -6.625e-8
-0.586, -6.653e-8
-0.585, -6.570e-8
-0.584, -6.507e-8
-0.583, -6.480e-8
-0.582, -6.472e-8
-0.581, -6.388e-8
-0.580, -6.404e-8
-0.579, -6.336e-8
-0.578, -6.289e-8
-0.577, -6.239e-8
-0.576, -6.231e-8
-0.575, -6.157e-8
-0.574, -6.131e-8
-0.573, -6.097e-8
-0.572, -6.117e-8
-0.571, -5.959e-8
-0.570, -5.975e-8
-0.569, -5.945e-8
-0.568, -5.870e-8
-0.567, -5.842e-8
-0.566, -5.852e-8
-0.565, -5.739e-8
-0.564, -5.740e-8
-0.563, -5.677e-8
-0.562, -5.672e-8
-0.561, -5.584e-8
-0.560, -5.610e-8
-0.559, -5.507e-8
-0.558, -5.469e-8
-0.557, -5.432e-8
-0.556, -5.438e-8
-0.555, -5.283e-8
-0.554, -5.356e-8
-0.553, -5.285e-8
-0.552, -5.201e-8
-0.551, -5.172e-8
-0.550, -5.171e-8
-0.549, -5.058e-8
-0.548, -5.071e-8
-0.547, -5.036e-8
-0.546, -4.994e-8
-0.545, -4.879e-8
-0.544, -4.871e-8
-0.543, -4.852e-8
-0.542, -4.792e-8
-0.541, -4.769e-8
-0.540, -4.735e-8
-0.539, -4.617e-8
-0.538, -4.672e-8
-0.537, -4.605e-8
-0.536, -4.509e-8
-0.535, -4.496e-8
-0.534, -4.497e-8
-0.533, -4.384e-8
-0.532, -4.387e-8
-0.531, -4.337e-8
-0.530, -4.319e-8
-0.529, -4.190e-8
-0.528, -4.238e-8
-0.527, -4.178e-8
-0.526, -4.059e-8
-0.525, -4.055e-8
-0.524, -4.027e-8
-0.523, -3.918e-8
-0.522, -3.954e-8
-0.521, -3.903e-8
-0.520, -3.781e-8
-0.519, -3.777e-8
-0.518, -3.780e-8
-0.517, -3.654e-8
-0.516, -3.659e-8
-0.515, -3.614e-8
-0.514, -3.558e-8
-0.513, -3.488e-8
-0.512, -3.568e-8
-0.511, -3.491e-8
-0.510, -3.399e-8
-0.509, -3.359e-8
-0.508, -3.334e-8
-0.507, -3.215e-8
-0.506, -3.229e-8
-0.505, -3.191e-8
-0.504, -3.101e-8
-0.503, -3.093e-8
-0.502, -3.085e-8
-0.501, -2.968e-8
-0.500, -2.924e-8
-0.499, -2.903e-8
-0.498, -2.858e-8
-0.497, -2.775e-8
-0.496, -2.758e-8
-0.495, -2.742e-8
-0.494, -2.596e-8
-0.493, -2.601e-8
-0.492, -2.591e-8
-0.491, -2.453e-8
-0.490, -2.481e-8
-0.489, -2.419e-8
-0.488, -2.323e-8
-0.487, -2.309e-8
-0.486, -2.274e-8
-0.485, -2.182e-8
-0.484, -2.139e-8
-0.483, -2.134e-8
-0.482, -2.057e-8
-0.481, -2.006e-8
-0.480, -1.960e-8
-0.479, -1.933e-8
-0.478, -1.821e-8
-0.477, -1.842e-8
-0.476, -1.818e-8
-0.475, -1.680e-8
-0.474, -1.663e-8
-0.473, -1.608e-8
-0.472, -1.517e-8
-0.471, -1.493e-8
-0.470, -1.476e-8
-0.469, -1.372e-8
-0.468, -1.332e-8
-0.467, -1.303e-8
-0.466, -1.226e-8
-0.465, -1.170e-8
-0.464, -1.150e-8
-0.463, -1.106e-8
-0.462, -1.012e-8
-0.461, -9.901e-9
-0.460, -9.567e-9
-0.459, -8.145e-9
-0.458, -8.489e-9
-0.457, -7.782e-9
-0.456, -6.586e-9
-0.455, -6.851e-9
-0.454, -6.106e-9
-0.453, -5.301e-9
-0.452, -4.693e-9
-0.451, -4.644e-9
-0.450, -3.938e-9
-0.449, -3.232e-9
-0.448, -2.673e-9
-0.447, -2.467e-9
-0.446, -1.291e-9
-0.445, -1.702e-9
-0.444, -8.591e-10
-0.443, 4.942e-10
-0.442, 5.237e-10
-0.441, 5.923e-10
-0.440, 1.887e-9
-0.439, 1.789e-9
-0.438, 2.416e-9
-0.437, 3.171e-9
-0.436, 3.603e-9
-0.435, 3.976e-9
-0.434, 4.829e-9
-0.433, 5.123e-9
-0.432, 5.574e-9
-0.431, 5.878e-9
-0.430, 7.545e-9
-0.429, 7.349e-9
-0.428, 7.888e-9
-0.427, 8.810e-9
-0.426, 9.202e-9
-0.425, 9.222e-9
-0.424, 1.059e-8
-0.423, 1.069e-8
-0.422, 1.146e-8
-0.421, 1.218e-8
-0.420, 1.286e-8
-0.419, 1.285e-8
-0.418, 1.396e-8
-0.417, 1.424e-8
-0.416, 1.488e-8
-0.415, 1.512e-8
-0.414, 1.654e-8
-0.413, 1.604e-8
-0.412, 1.681e-8
-0.411, 1.788e-8
-0.410, 1.782e-8
-0.409, 1.784e-8
-0.408, 1.984e-8
-0.407, 1.946e-8
-0.406, 2.031e-8
-0.405, 2.106e-8
-0.404, 2.174e-8
-0.403, 2.204e-8
-0.402, 2.271e-8
-0.401, 2.360e-8
-0.400, 2.389e-8
-0.399, 2.429e-8
-0.398, 2.575e-8
-0.397, 2.577e-8
-0.396, 2.633e-8
-0.395, 2.708e-8
-0.394, 2.796e-8
-0.393, 2.763e-8
-0.392, 2.918e-8
-0.391, 2.908e-8
-0.390, 2.997e-8
-0.389, 3.033e-8
-0.388, 3.131e-8
-0.387, 3.134e-8
-0.386, 3.259e-8
-0.385, 3.288e-8
-0.384, 3.346e-8
-0.383, 3.335e-8
-0.382, 3.511e-8
-0.381, 3.448e-8
-0.380, 3.571e-8
-0.379, 3.635e-8
-0.378, 3.713e-8
-0.377, 3.702e-8
-0.376, 3.856e-8
-0.375, 3.814e-8
-0.374, 3.921e-8
-0.373, 3.954e-8
-0.372, 4.055e-8
-0.371, 4.053e-8
-0.370, 4.161e-8
-0.369, 4.177e-8
-0.368, 4.243e-8
-0.367, 4.270e-8
-0.366, 4.439e-8
-0.365, 4.384e-8
-0.364, 4.495e-8
-0.363, 4.577e-8
-0.362, 4.632e-8
-0.361, 4.581e-8
-0.360, 4.788e-8
-0.359, 4.751e-8
-0.358, 4.867e-8
-0.357, 4.883e-8
-0.356, 4.981e-8
-0.355, 4.927e-8
-0.354, 5.094e-8
-0.353, 5.102e-8
-0.352, 5.184e-8
-0.351, 5.197e-8
-0.350, 5.324e-8
-0.349, 5.280e-8
-0.348, 5.373e-8
-0.347, 5.436e-8
-0.346, 5.477e-8
-0.345, 5.488e-8
-0.344, 5.636e-8
-0.343, 5.600e-8
-0.342, 5.694e-8
-0.341, 5.721e-8
-0.340, 5.816e-8
-0.339, 5.815e-8
-0.338, 5.906e-8
-0.337, 5.928e-8
-0.336, 6.013e-8
-0.335, 5.984e-8
-0.334, 6.153e-8
-0.333, 6.051e-8
-0.332, 6.165e-8
-0.331, 6.218e-8
-0.330, 6.288e-8
-0.329, 6.241e-8
-0.328, 6.382e-8
-0.327, 6.338e-8
-0.326, 6.424e-8
-0.325, 6.450e-8
-0.324, 6.516e-8
-0.323, 6.516e-8
-0.322, 6.590e-8
-0.321, 6.601e-8
-0.320, 6.733e-8
-0.319, 6.680e-8
-0.318, 6.873e-8
-0.317, 6.741e-8
-0.316, 6.887e-8
-0.315, 6.927e-8
-0.314, 7.009e-8
-0.313, 6.917e-8
-0.312, 7.148e-8
-0.311, 7.055e-8
-0.310, 7.166e-8
-0.309, 7.220e-8
-0.308, 7.302e-8
-0.307, 7.155e-8
-0.306, 7.371e-8
-0.305, 7.353e-8
-0.304, 7.459e-8
-0.303, 7.409e-8
-0.302, 7.584e-8
-0.301, 7.504e-8
-0.300, 7.614e-8
-0.299, 7.637e-8
-0.298, 7.717e-8
-0.297, 7.666e-8
-0.296, 7.828e-8
-0.295, 7.740e-8
-0.294, 7.881e-8
-0.293, 7.897e-8
-0.292, 7.969e-8
-0.291, 7.874e-8
-0.290, 8.046e-8
-0.289, 7.979e-8
-0.288, 8.120e-8
-0.287, 8.064e-8
-0.286, 8.238e-8
-0.285, 8.116e-8
-0.284, 8.225e-8
-0.283, 8.248e-8
-0.282, 8.326e-8
-0.281, 8.273e-8
-0.280, 8.465e-8
-0.279, 8.338e-8
-0.278, 8.457e-8
-0.277, 8.444e-8
-0.276, 8.569e-8
-0.275, 8.506e-8
-0.274, 8.679e-8
-0.273, 8.570e-8
-0.272, 8.687e-8
-0.271, 8.635e-8
-0.270, 8.819e-8
-0.269, 8.717e-8
-0.268, 8.816e-8
-0.267, 8.832e-8
-0.266, 8.907e-8
-0.265, 8.832e-8
-0.264, 9.013e-8
-0.263, 8.921e-8
-0.262, 9.042e-8
-0.261, 9.031e-8
-0.260, 9.136e-8
-0.259, 9.021e-8
-0.258, 9.237e-8
-0.257, 9.141e-8
-0.256, 9.271e-8
-0.255, 9.201e-8
-0.254, 9.377e-8
-0.253, 9.284e-8
-0.252, 9.401e-8
-0.251, 9.388e-8
-0.250, 9.522e-8
-0.249, 9.384e-8
-0.248, 9.624e-8
-0.247, 9.468e-8
-0.246, 9.619e-8
-0.245, 9.579e-8
-0.244, 9.740e-8
-0.243, 9.598e-8
-0.242, 9.801e-8
-0.241, 9.751e-8
-0.240, 9.850e-8
-0.239, 9.740e-8
-0.238, 9.979e-8
-0.237, 9.865e-8
-0.236, 9.982e-8
-0.235, 9.986e-8
-0.234, 1.007e-7
-0.233, 9.954e-8
-0.232, 1.019e-7
-0.231, 1.006e-7
-0.230, 1.019e-7
-0.229, 1.013e-7
-0.228, 1.030e-7
-0.227, 1.018e-7
-0.226, 1.037e-7
-0.225, 1.027e-7
-0.224, 1.042e-7
-0.223, 1.035e-7
-0.222, 1.055e-7
-0.221, 1.039e-7
-0.220, 1.053e-7
-0.219, 1.053e-7
-0.218, 1.066e-7
-0.217, 1.055e-7
-0.216, 1.077e-7
-0.215, 1.060e-7
-0.214, 1.078e-7
-0.213, 1.072e-7
-0.212, 1.091e-7
-0.211, 1.078e-7
-0.210, 1.096e-7
-0.209, 1.087e-7
-0.208, 1.102e-7
-0.207, 1.090e-7
-0.206, 1.115e-7
-0.205, 1.102e-7
-0.204, 1.118e-7
-0.203, 1.113e-7
-0.202, 1.126e-7
-0.201, 1.112e-7
-0.200, 1.138e-7
-0.199, 1.122e-7
-0.198, 1.143e-7
-0.197, 1.134e-7
-0.196, 1.150e-7
-0.195, 1.138e-7
-0.194, 1.159e-7
-0.193, 1.150e-7
-0.192, 1.168e-7
-0.191, 1.151e-7
-0.190, 1.182e-7
-0.189, 1.159e-7
-0.188, 1.178e-7
-0.187, 1.178e-7
-0.186, 1.195e-7
-0.185, 1.178e-7
-0.184, 1.209e-7
-0.183, 1.188e-7
-0.182, 1.210e-7
-0.181, 1.202e-7
-0.180, 1.221e-7
-0.179, 1.203e-7
-0.178, 1.233e-7
-0.177, 1.218e-7
-0.176, 1.239e-7
-0.175, 1.223e-7
-0.174, 1.253e-7
-0.173, 1.235e-7
-0.172, 1.261e-7
-0.171, 1.253e-7
-0.170, 1.270e-7
-0.169, 1.252e-7
-0.168, 1.284e-7
-0.167, 1.267e-7
-0.166, 1.292e-7
-0.165, 1.280e-7
-0.164, 1.300e-7
-0.163, 1.279e-7
-0.162, 1.311e-7
-0.161, 1.301e-7
-0.160, 1.321e-7
-0.159, 1.304e-7
-0.158, 1.334e-7
-0.157, 1.313e-7
-0.156, 1.339e-7
-0.155, 1.328e-7
-0.154, 1.351e-7
-0.153, 1.336e-7
-0.152, 1.365e-7
-0.151, 1.345e-7
-0.150, 1.367e-7
-0.149, 1.358e-7
-0.148, 1.382e-7
-0.147, 1.364e-7
-0.146, 1.394e-7
-0.145, 1.377e-7
-0.144, 1.403e-7
-0.143, 1.384e-7
-0.142, 1.419e-7
-0.141, 1.400e-7
-0.140, 1.422e-7
-0.139, 1.411e-7
-0.138, 1.435e-7
-0.137, 1.418e-7
-0.136, 1.451e-7
-0.135, 1.430e-7
-0.134, 1.462e-7
-0.133, 1.445e-7
-0.132, 1.475e-7
-0.131, 1.450e-7
-0.130, 1.484e-7
-0.129, 1.468e-7
-0.128, 1.495e-7
-0.127, 1.474e-7
-0.126, 1.513e-7
-0.125, 1.490e-7
-0.124, 1.516e-7
-0.123, 1.506e-7
-0.122, 1.537e-7
-0.121, 1.513e-7
-0.120, 1.550e-7
-0.119, 1.524e-7
-0.118, 1.553e-7
-0.117, 1.542e-7
-0.116, 1.575e-7
-0.115, 1.552e-7
-0.114, 1.585e-7
-0.113, 1.566e-7
-0.112, 1.595e-7
-0.111, 1.574e-7
-0.110, 1.614e-7
-0.109, 1.589e-7
-0.108, 1.618e-7
-0.107, 1.609e-7
-0.106, 1.631e-7
-0.105, 1.610e-7
-0.104, 1.650e-7
-0.103, 1.624e-7
-0.102, 1.649e-7
-0.101, 1.640e-7
-0.100, 1.670e-7
-0.099, 1.646e-7
-0.098, 1.687e-7
-0.097, 1.665e-7
-0.096, 1.699e-7
-0.095, 1.675e-7
-0.094, 1.719e-7
-0.093, 1.687e-7
-0.092, 1.724e-7
-0.091, 1.711e-7
-0.090, 1.737e-7
-0.089, 1.716e-7
-0.088, 1.760e-7
-0.087, 1.730e-7
-0.086, 1.768e-7
-0.085, 1.746e-7
-0.084, 1.783e-7
-0.083, 1.757e-7
-0.082, 1.796e-7
-0.081, 1.773e-7
-0.080, 1.806e-7
-0.079, 1.778e-7
-0.078, 1.825e-7
-0.077, 1.795e-7
-0.076, 1.827e-7
-0.075, 1.809e-7
-0.074, 1.841e-7
-0.073, 1.812e-7
-0.072, 1.857e-7
-0.071, 1.827e-7
-0.070, 1.861e-7
-0.069, 1.843e-7
-0.068, 1.872e-7
-0.067, 1.844e-7
-0.066, 1.879e-7
-0.065, 1.857e-7
-0.064, 1.890e-7
-0.063, 1.861e-7
-0.062, 1.901e-7
-0.061, 1.868e-7
-0.060, 1.904e-7
-0.059, 1.883e-7
-0.058, 1.912e-7
-0.057, 1.880e-7
-0.056, 1.925e-7
-0.055, 1.887e-7
-0.054, 1.919e-7
-0.053, 1.899e-7
-0.052, 1.930e-7
-0.051, 1.901e-7
-0.050, 1.937e-7
-0.049, 1.907e-7
-0.048, 1.940e-7
-0.047, 1.907e-7
-0.046, 1.954e-7
-0.045, 1.920e-7
-0.044, 1.955e-7
-0.043, 1.933e-7
-0.042, 1.963e-7
-0.041, 1.929e-7
-0.040, 1.980e-7
-0.039, 1.943e-7
-0.038, 1.981e-7
-0.037, 1.954e-7
-0.036, 1.990e-7
-0.035, 1.958e-7
-0.034, 2.001e-7
-0.033, 1.976e-7
-0.032, 2.013e-7
-0.031, 1.982e-7
-0.030, 2.026e-7
-0.029, 1.992e-7
-0.028, 2.029e-7
-0.027, 2.011e-7
-0.026, 2.045e-7
-0.025, 2.009e-7
-0.024, 2.061e-7
-0.023, 2.025e-7
-0.022, 2.064e-7
-0.021, 2.040e-7
-0.020, 2.079e-7
-0.019, 2.053e-7
-0.018, 2.096e-7
-0.017, 2.066e-7
-0.016, 2.104e-7
-0.015, 2.074e-7
-0.014, 2.123e-7
-0.013, 2.089e-7
-0.012, 2.128e-7
-0.011, 2.110e-7
-0.010, 2.141e-7
-0.009, 2.112e-7
-0.008, 2.164e-7
-0.007, 2.127e-7
-0.006, 2.172e-7
-0.005, 2.144e-7
-0.004, 2.188e-7
-0.003, 2.152e-7
-0.002, 2.203e-7
-0.001, 2.170e-7
-0.000, 2.206e-7
0.001, 2.176e-7
0.002, 2.239e-7
0.003, 2.196e-7
0.004, 2.243e-7
0.005, 2.219e-7
0.006, 2.262e-7
0.007, 2.226e-7
0.008, 2.280e-7
0.009, 2.246e-7
0.010, 2.290e-7
0.011, 2.259e-7
0.012, 2.307e-7
0.013, 2.268e-7
0.014, 2.326e-7
0.015, 2.289e-7
0.016, 2.335e-7
0.017, 2.300e-7
0.018, 2.360e-7
0.019, 2.316e-7
0.020, 2.365e-7
0.021, 2.340e-7
0.022, 2.382e-7
0.023, 2.342e-7
0.024, 2.404e-7
0.025, 2.363e-7
0.026, 2.411e-7
0.027, 2.380e-7
0.028, 2.430e-7
0.029, 2.389e-7
0.030, 2.447e-7
0.031, 2.410e-7
0.032, 2.460e-7
0.033, 2.420e-7
0.034, 2.485e-7
0.035, 2.433e-7
0.036, 2.486e-7
0.037, 2.463e-7
0.038, 2.508e-7
0.039, 2.468e-7
0.040, 2.527e-7
0.041, 2.485e-7
0.042, 2.533e-7
0.043, 2.501e-7
0.044, 2.550e-7
0.045, 2.516e-7
0.046, 2.569e-7
0.047, 2.532e-7
0.048, 2.578e-7
0.049, 2.543e-7
0.050, 2.601e-7
0.051, 2.560e-7
0.052, 2.609e-7
0.053, 2.582e-7
0.054, 2.625e-7
0.055, 2.586e-7
0.056, 2.653e-7
0.057, 2.605e-7
0.058, 2.659e-7
0.059, 2.622e-7
0.060, 2.681e-7
0.061, 2.634e-7
0.062, 2.693e-7
0.063, 2.653e-7
0.064, 2.709e-7
0.065, 2.667e-7
0.066, 2.729e-7
0.067, 2.679e-7
0.068, 2.738e-7
0.069, 2.708e-7
0.070, 2.756e-7
0.071, 2.711e-7
0.072, 2.775e-7
0.073, 2.730e-7
0.074, 2.786e-7
0.075, 2.747e-7
0.076, 2.807e-7
0.077, 2.761e-7
0.078, 2.822e-7
0.079, 2.781e-7
0.080, 2.836e-7
0.081, 2.787e-7
0.082, 2.861e-7
0.083, 2.805e-7
0.084, 2.869e-7
0.085, 2.834e-7
0.086, 2.886e-7
0.087, 2.836e-7
0.088, 2.914e-7
0.089, 2.857e-7
0.090, 2.924e-7
0.091, 2.876e-7
0.092, 2.942e-7
0.093, 2.886e-7
0.094, 2.956e-7
0.095, 2.910e-7
0.096, 2.974e-7
0.097, 2.920e-7
0.098, 2.996e-7
0.099, 2.939e-7
0.100, 2.999e-7
0.101, 2.965e-7
0.102, 3.011e-7
0.103, 2.956e-7
0.104, 3.043e-7
0.105, 2.984e-7
0.106, 3.049e-7
0.107, 3.003e-7
0.108, 3.070e-7
0.109, 3.016e-7
0.110, 3.086e-7
0.111, 3.038e-7
0.112, 3.104e-7
0.113, 3.049e-7
0.114, 3.123e-7
0.115, 3.069e-7
0.116, 3.134e-7
0.117, 3.091e-7
0.118, 3.153e-7
0.119, 3.099e-7
0.120, 3.182e-7
0.121, 3.118e-7
0.122, 3.190e-7
0.123, 3.139e-7
0.124, 3.209e-7
0.125, 3.149e-7
0.126, 3.225e-7
0.127, 3.171e-7
0.128, 3.244e-7
0.129, 3.188e-7
0.130, 3.268e-7
0.131, 3.200e-7
0.132, 3.272e-7
0.133, 3.233e-7
0.134, 3.295e-7
0.135, 3.235e-7
0.136, 3.323e-7
0.137, 3.251e-7
0.138, 3.327e-7
0.139, 3.274e-7
0.140, 3.351e-7
0.141, 3.289e-7
0.142, 3.369e-7
0.143, 3.310e-7
0.144, 3.380e-7
0.145, 3.317e-7
0.146, 3.413e-7
0.147, 3.341e-7
0.148, 3.414e-7
0.149, 3.372e-7
0.150, 3.442e-7
0.151, 3.369e-7
0.152, 3.470e-7
0.153, 3.394e-7
0.154, 3.479e-7
0.155, 3.418e-7
0.156, 3.495e-7
0.157, 3.427e-7
0.158, 3.512e-7
0.159, 3.454e-7
0.160, 3.532e-7
0.161, 3.464e-7
0.162, 3.559e-7
0.163, 3.482e-7
0.164, 3.556e-7
0.165, 3.512e-7
0.166, 3.581e-7
0.167, 3.510e-7
0.168, 3.609e-7
0.169, 3.533e-7
0.170, 3.613e-7
0.171, 3.556e-7
0.172, 3.635e-7
0.173, 3.570e-7
0.174, 3.653e-7
0.175, 3.584e-7
0.176, 3.667e-7
0.177, 3.599e-7
0.178, 3.698e-7
0.179, 3.615e-7
0.180, 3.701e-7
0.181, 3.646e-7
0.182, 3.722e-7
0.183, 3.645e-7
0.184, 3.754e-7
0.185, 3.672e-7
0.186, 3.760e-7
0.187, 3.699e-7
0.188, 3.781e-7
0.189, 3.702e-7
0.190, 3.798e-7
0.191, 3.730e-7
0.192, 3.818e-7
0.193, 3.742e-7
0.194, 3.843e-7
0.195, 3.755e-7
0.196, 3.846e-7
0.197, 3.788e-7
0.198, 3.874e-7
0.199, 3.797e-7