File: data/raw_data/electrochemistry/20170904_Gr-NH2_prod_for_Radisurf/cv7 0.txt
Sept. 4, 2017   10:44:21
Cyclic Voltammetry
File: cv7 0
Data Source:  Experiment
Instrument Model:  CHI601D
Header:
Note:

Init E (V) = 0.2
High E (V) = 0.2
Low E (V) = -1
Final E (V) = 0.2
Init P/N = N
Scan Rate (V/s) = 0.1
Segment = 2
Sample Interval (V) = 0.001
Quiet Time (sec) = 2
Sensitivity (A/V) = 1e-5

Potential/V, Current/A

Segment 1:
0.200, 3.574e-7
0.199, 3.486e-7
0.198, 3.408e-7
0.197, 3.354e-7
0.196, 3.293e-7
0.195, 3.254e-7
0.194, 3.200e-7
0.193, 3.158e-7
0.192, 3.106e-7
0.191, 3.073e-7
0.190, 3.021e-7
0.189, 2.989e-7
0.188, 2.941e-7
0.187, 2.904e-7
0.186, 2.857e-7
0.185, 2.822e-7
0.184, 2.774e-7
0.183, 2.743e-7
0.182, 2.698e-7
0.181, 2.664e-7
0.180, 2.616e-7
0.179, 2.589e-7
0.178, 2.545e-7
0.177, 2.514e-7
0.176, 2.472e-7
0.175, 2.441e-7
0.174, 2.394e-7
0.173, 2.365e-7
0.172, 2.324e-7
0.171, 2.290e-7
0.170, 2.245e-7
0.169, 2.217e-7
0.168, 2.170e-7
0.167, 2.139e-7
0.166, 2.102e-7
0.165, 2.072e-7
0.164, 2.030e-7
0.163, 2.002e-7
0.162, 1.961e-7
0.161, 1.930e-7
0.160, 1.889e-7
0.159, 1.862e-7
0.158, 1.821e-7
0.157, 1.793e-7
0.156, 1.749e-7
0.155, 1.716e-7
0.154, 1.671e-7
0.153, 1.644e-7
0.152, 1.606e-7
0.151, 1.580e-7
0.150, 1.538e-7
0.149, 1.507e-7
0.148, 1.467e-7
0.147, 1.438e-7
0.146, 1.395e-7
0.145, 1.368e-7
0.144, 1.330e-7
0.143, 1.303e-7
0.142, 1.258e-7
0.141, 1.229e-7
0.140, 1.183e-7
0.139, 1.152e-7
0.138, 1.118e-7
0.137, 1.093e-7
0.136, 1.048e-7
0.135, 1.022e-7
0.134, 9.820e-8
0.133, 9.524e-8
0.132, 9.110e-8
0.131, 8.840e-8
0.130, 8.456e-8
0.129, 8.177e-8
0.128, 7.776e-8
0.127, 7.499e-8
0.126, 7.027e-8
0.125, 6.711e-8
0.124, 6.354e-8
0.123, 6.092e-8
0.122, 5.702e-8
0.121, 5.414e-8
0.120, 5.013e-8
0.119, 4.747e-8
0.118, 4.324e-8
0.117, 4.050e-8
0.116, 3.668e-8
0.115, 3.384e-8
0.114, 2.969e-8
0.113, 2.694e-8
0.112, 2.275e-8
0.111, 1.977e-8
0.110, 1.575e-8
0.109, 1.317e-8
0.108, 8.840e-9
0.107, 5.643e-9
0.106, 1.828e-9
0.105, -9.081e-10
0.104, -5.478e-9
0.103, -8.135e-9
0.102, -1.193e-8
0.101, -1.498e-8
0.100, -1.912e-8
0.099, -2.181e-8
0.098, -2.616e-8
0.097, -2.930e-8
0.096, -3.329e-8
0.095, -3.584e-8
0.094, -4.026e-8
0.093, -4.326e-8
0.092, -4.734e-8
0.091, -5.051e-8
0.090, -5.478e-8
0.089, -5.773e-8
0.088, -6.182e-8
0.087, -6.467e-8
0.086, -6.876e-8
0.085, -7.162e-8
0.084, -7.599e-8
0.083, -7.922e-8
0.082, -8.310e-8
0.081, -8.585e-8
0.080, -9.004e-8
0.079, -9.310e-8
0.078, -9.761e-8
0.077, -1.007e-7
0.076, -1.049e-7
0.075, -1.080e-7
0.074, -1.119e-7
0.073, -1.149e-7
0.072, -1.195e-7
0.071, -1.225e-7
0.070, -1.272e-7
0.069, -1.301e-7
0.068, -1.342e-7
0.067, -1.370e-7
0.066, -1.413e-7
0.065, -1.446e-7
0.064, -1.489e-7
0.063, -1.523e-7
0.062, -1.565e-7
0.061, -1.593e-7
0.060, -1.635e-7
0.059, -1.668e-7
0.058, -1.712e-7
0.057, -1.746e-7
0.056, -1.793e-7
0.055, -1.820e-7
0.054, -1.861e-7
0.053, -1.894e-7
0.052, -1.938e-7
0.051, -1.969e-7
0.050, -2.019e-7
0.049, -2.053e-7
0.048, -2.093e-7
0.047, -2.125e-7
0.046, -2.171e-7
0.045, -2.202e-7
0.044, -2.249e-7
0.043, -2.284e-7
0.042, -2.324e-7
0.041, -2.355e-7
0.040, -2.402e-7
0.039, -2.432e-7
0.038, -2.478e-7
0.037, -2.515e-7
0.036, -2.561e-7
0.035, -2.594e-7
0.034, -2.640e-7
0.033, -2.673e-7
0.032, -2.719e-7
0.031, -2.755e-7
0.030, -2.800e-7
0.029, -2.831e-7
0.028, -2.877e-7
0.027, -2.912e-7
0.026, -2.956e-7
0.025, -2.992e-7
0.024, -3.041e-7
0.023, -3.075e-7
0.022, -3.121e-7
0.021, -3.156e-7
0.020, -3.204e-7
0.019, -3.241e-7
0.018, -3.287e-7
0.017, -3.323e-7
0.016, -3.364e-7
0.015, -3.396e-7
0.014, -3.447e-7
0.013, -3.485e-7
0.012, -3.532e-7
0.011, -3.569e-7
0.010, -3.615e-7
0.009, -3.649e-7
0.008, -3.701e-7
0.007, -3.739e-7
0.006, -3.782e-7
0.005, -3.817e-7
0.004, -3.865e-7
0.003, -3.900e-7
0.002, -3.947e-7
0.001, -3.987e-7
-0.000, -4.033e-7
-0.001, -4.071e-7
-0.002, -4.122e-7
-0.003, -4.156e-7
-0.004, -4.208e-7
-0.005, -4.247e-7
-0.006, -4.291e-7
-0.007, -4.331e-7
-0.008, -4.381e-7
-0.009, -4.416e-7
-0.010, -4.467e-7
-0.011, -4.505e-7
-0.012, -4.556e-7
-0.013, -4.595e-7
-0.014, -4.646e-7
-0.015, -4.686e-7
-0.016, -4.736e-7
-0.017, -4.771e-7
-0.018, -4.822e-7
-0.019, -4.859e-7
-0.020, -4.908e-7
-0.021, -4.951e-7
-0.022, -4.998e-7
-0.023, -5.035e-7
-0.024, -5.091e-7
-0.025, -5.128e-7
-0.026, -5.182e-7
-0.027, -5.224e-7
-0.028, -5.270e-7
-0.029, -5.309e-7
-0.030, -5.361e-7
-0.031, -5.402e-7
-0.032, -5.455e-7
-0.033, -5.491e-7
-0.034, -5.542e-7
-0.035, -5.583e-7
-0.036, -5.637e-7
-0.037, -5.685e-7
-0.038, -5.734e-7
-0.039, -5.770e-7
-0.040, -5.824e-7
-0.041, -5.863e-7
-0.042, -5.919e-7
-0.043, -5.963e-7
-0.044, -6.011e-7
-0.045, -6.053e-7
-0.046, -6.106e-7
-0.047, -6.154e-7
-0.048, -6.209e-7
-0.049, -6.246e-7
-0.050, -6.301e-7
-0.051, -6.341e-7
-0.052, -6.394e-7
-0.053, -6.441e-7
-0.054, -6.491e-7
-0.055, -6.533e-7
-0.056, -6.586e-7
-0.057, -6.629e-7
-0.058, -6.688e-7
-0.059, -6.730e-7
-0.060, -6.784e-7
-0.061, -6.826e-7
-0.062, -6.880e-7
-0.063, -6.926e-7
-0.064, -6.980e-7
-0.065, -7.024e-7
-0.066, -7.079e-7
-0.067, -7.123e-7
-0.068, -7.181e-7
-0.069, -7.225e-7
-0.070, -7.282e-7
-0.071, -7.324e-7
-0.072, -7.379e-7
-0.073, -7.422e-7
-0.074, -7.475e-7
-0.075, -7.522e-7
-0.076, -7.578e-7
-0.077, -7.624e-7
-0.078, -7.680e-7
-0.079, -7.721e-7
-0.080, -7.778e-7
-0.081, -7.825e-7
-0.082, -7.887e-7
-0.083, -7.931e-7
-0.084, -7.984e-7
-0.085, -8.032e-7
-0.086, -8.087e-7
-0.087, -8.135e-7
-0.088, -8.188e-7
-0.089, -8.232e-7
-0.090, -8.289e-7
-0.091, -8.339e-7
-0.092, -8.400e-7
-0.093, -8.444e-7
-0.094, -8.500e-7
-0.095, -8.548e-7
-0.096, -8.610e-7
-0.097, -8.659e-7
-0.098, -8.713e-7
-0.099, -8.759e-7
-0.100, -8.817e-7
-0.101, -8.871e-7
-0.102, -8.927e-7
-0.103, -8.971e-7
-0.104, -9.030e-7
-0.105, -9.078e-7
-0.106, -9.140e-7
-0.107, -9.185e-7
-0.108, -9.242e-7
-0.109, -9.290e-7
-0.110, -9.351e-7
-0.111, -9.402e-7
-0.112, -9.461e-7
-0.113, -9.509e-7
-0.114, -9.571e-7
-0.115, -9.623e-7
-0.116, -9.677e-7
-0.117, -9.728e-7
-0.118, -9.784e-7
-0.119, -9.834e-7
-0.120, -9.896e-7
-0.121, -9.947e-7
-0.122, -1.001e-6
-0.123, -1.006e-6
-0.124, -1.012e-6
-0.125, -1.017e-6
-0.126, -1.023e-6
-0.127, -1.028e-6
-0.128, -1.034e-6
-0.129, -1.039e-6
-0.130, -1.045e-6
-0.131, -1.050e-6
-0.132, -1.057e-6
-0.133, -1.062e-6
-0.134, -1.068e-6
-0.135, -1.073e-6
-0.136, -1.079e-6
-0.137, -1.084e-6
-0.138, -1.090e-6
-0.139, -1.095e-6
-0.140, -1.102e-6
-0.141, -1.107e-6
-0.142, -1.113e-6
-0.143, -1.118e-6
-0.144, -1.125e-6
-0.145, -1.130e-6
-0.146, -1.136e-6
-0.147, -1.141e-6
-0.148, -1.147e-6
-0.149, -1.153e-6
-0.150, -1.159e-6
-0.151, -1.164e-6
-0.152, -1.171e-6
-0.153, -1.176e-6
-0.154, -1.182e-6
-0.155, -1.188e-6
-0.156, -1.194e-6
-0.157, -1.199e-6
-0.158, -1.206e-6
-0.159, -1.211e-6
-0.160, -1.218e-6
-0.161, -1.223e-6
-0.162, -1.230e-6
-0.163, -1.235e-6
-0.164, -1.241e-6
-0.165, -1.246e-6
-0.166, -1.253e-6
-0.167, -1.259e-6
-0.168, -1.265e-6
-0.169, -1.270e-6
-0.170, -1.277e-6
-0.171, -1.282e-6
-0.172, -1.289e-6
-0.173, -1.294e-6
-0.174, -1.301e-6
-0.175, -1.307e-6
-0.176, -1.313e-6
-0.177, -1.318e-6
-0.178, -1.325e-6
-0.179, -1.330e-6
-0.180, -1.336e-6
-0.181, -1.342e-6
-0.182, -1.349e-6
-0.183, -1.355e-6
-0.184, -1.361e-6
-0.185, -1.366e-6
-0.186, -1.373e-6
-0.187, -1.379e-6
-0.188, -1.385e-6
-0.189, -1.391e-6
-0.190, -1.397e-6
-0.191, -1.403e-6
-0.192, -1.410e-6
-0.193, -1.415e-6
-0.194, -1.422e-6
-0.195, -1.428e-6
-0.196, -1.434e-6
-0.197, -1.440e-6
-0.198, -1.447e-6
-0.199, -1.453e-6
-0.200, -1.459e-6
-0.201, -1.465e-6
-0.202, -1.471e-6
-0.203, -1.478e-6
-0.204, -1.484e-6
-0.205, -1.490e-6
-0.206, -1.497e-6
-0.207, -1.503e-6
-0.208, -1.509e-6
-0.209, -1.515e-6
-0.210, -1.521e-6
-0.211, -1.527e-6
-0.212, -1.534e-6
-0.213, -1.540e-6
-0.214, -1.547e-6
-0.215, -1.553e-6
-0.216, -1.559e-6
-0.217, -1.565e-6
-0.218, -1.572e-6
-0.219, -1.578e-6
-0.220, -1.585e-6
-0.221, -1.591e-6
-0.222, -1.598e-6
-0.223, -1.603e-6
-0.224, -1.610e-6
-0.225, -1.616e-6
-0.226, -1.623e-6
-0.227, -1.629e-6
-0.228, -1.636e-6
-0.229, -1.642e-6
-0.230, -1.649e-6
-0.231, -1.655e-6
-0.232, -1.662e-6
-0.233, -1.667e-6
-0.234, -1.674e-6
-0.235, -1.680e-6
-0.236, -1.687e-6
-0.237, -1.694e-6
-0.238, -1.701e-6
-0.239, -1.706e-6
-0.240, -1.713e-6
-0.241, -1.719e-6
-0.242, -1.726e-6
-0.243, -1.732e-6
-0.244, -1.739e-6
-0.245, -1.746e-6
-0.246, -1.752e-6
-0.247, -1.758e-6
-0.248, -1.765e-6
-0.249, -1.771e-6
-0.250, -1.778e-6
-0.251, -1.785e-6
-0.252, -1.792e-6
-0.253, -1.798e-6
-0.254, -1.805e-6
-0.255, -1.811e-6
-0.256, -1.818e-6
-0.257, -1.824e-6
-0.258, -1.831e-6
-0.259, -1.837e-6
-0.260, -1.844e-6
-0.261, -1.851e-6
-0.262, -1.858e-6
-0.263, -1.864e-6
-0.264, -1.871e-6
-0.265, -1.877e-6
-0.266, -1.884e-6
-0.267, -1.891e-6
-0.268, -1.898e-6
-0.269, -1.904e-6
-0.270, -1.911e-6
-0.271, -1.918e-6
-0.272, -1.925e-6
-0.273, -1.931e-6
-0.274, -1.939e-6
-0.275, -1.945e-6
-0.276, -1.951e-6
-0.277, -1.958e-6
-0.278, -1.965e-6
-0.279, -1.971e-6
-0.280, -1.979e-6
-0.281, -1.985e-6
-0.282, -1.992e-6
-0.283, -1.998e-6
-0.284, -2.005e-6
-0.285, -2.011e-6
-0.286, -2.019e-6
-0.287, -2.025e-6
-0.288, -2.033e-6
-0.289, -2.039e-6
-0.290, -2.046e-6
-0.291, -2.052e-6
-0.292, -2.059e-6
-0.293, -2.066e-6
-0.294, -2.073e-6
-0.295, -2.080e-6
-0.296, -2.087e-6
-0.297, -2.093e-6
-0.298, -2.100e-6
-0.299, -2.107e-6
-0.300, -2.114e-6
-0.301, -2.120e-6
-0.302, -2.128e-6
-0.303, -2.134e-6
-0.304, -2.142e-6
-0.305, -2.148e-6
-0.306, -2.155e-6
-0.307, -2.162e-6
-0.308, -2.168e-6
-0.309, -2.175e-6
-0.310, -2.183e-6
-0.311, -2.189e-6
-0.312, -2.196e-6
-0.313, -2.203e-6
-0.314, -2.210e-6
-0.315, -2.216e-6
-0.316, -2.224e-6
-0.317, -2.230e-6
-0.318, -2.238e-6
-0.319, -2.244e-6
-0.320, -2.251e-6
-0.321, -2.258e-6
-0.322, -2.266e-6
-0.323, -2.272e-6
-0.324, -2.279e-6
-0.325, -2.286e-6
-0.326, -2.293e-6
-0.327, -2.300e-6
-0.328, -2.307e-6
-0.329, -2.313e-6
-0.330, -2.321e-6
-0.331, -2.327e-6
-0.332, -2.335e-6
-0.333, -2.341e-6
-0.334, -2.348e-6
-0.335, -2.355e-6
-0.336, -2.363e-6
-0.337, -2.369e-6
-0.338, -2.376e-6
-0.339, -2.383e-6
-0.340, -2.390e-6
-0.341, -2.396e-6
-0.342, -2.404e-6
-0.343, -2.411e-6
-0.344, -2.418e-6
-0.345, -2.425e-6
-0.346, -2.433e-6
-0.347, -2.439e-6
-0.348, -2.446e-6
-0.349, -2.453e-6
-0.350, -2.461e-6
-0.351, -2.467e-6
-0.352, -2.474e-6
-0.353, -2.481e-6
-0.354, -2.489e-6
-0.355, -2.495e-6
-0.356, -2.502e-6
-0.357, -2.510e-6
-0.358, -2.517e-6
-0.359, -2.524e-6
-0.360, -2.531e-6
-0.361, -2.538e-6
-0.362, -2.545e-6
-0.363, -2.552e-6
-0.364, -2.559e-6
-0.365, -2.566e-6
-0.366, -2.574e-6
-0.367, -2.581e-6
-0.368, -2.588e-6
-0.369, -2.594e-6
-0.370, -2.602e-6
-0.371, -2.609e-6
-0.372, -2.617e-6
-0.373, -2.623e-6
-0.374, -2.631e-6
-0.375, -2.637e-6
-0.376, -2.645e-6
-0.377, -2.652e-6
-0.378, -2.659e-6
-0.379, -2.666e-6
-0.380, -2.674e-6
-0.381, -2.680e-6
-0.382, -2.687e-6
-0.383, -2.694e-6
-0.384, -2.702e-6
-0.385, -2.708e-6
-0.386, -2.716e-6
-0.387, -2.723e-6
-0.388, -2.731e-6
-0.389, -2.738e-6
-0.390, -2.745e-6
-0.391, -2.752e-6
-0.392, -2.759e-6
-0.393, -2.766e-6
-0.394, -2.774e-6
-0.395, -2.781e-6
-0.396, -2.788e-6
-0.397, -2.795e-6
-0.398, -2.803e-6
-0.399, -2.809e-6
-0.400, -2.817e-6
-0.401, -2.824e-6
-0.402, -2.831e-6
-0.403, -2.838e-6
-0.404, -2.846e-6
-0.405, -2.853e-6
-0.406, -2.860e-6
-0.407, -2.867e-6
-0.408, -2.875e-6
-0.409, -2.882e-6
-0.410, -2.889e-6
-0.411, -2.896e-6
-0.412, -2.904e-6
-0.413, -2.910e-6
-0.414, -2.918e-6
-0.415, -2.925e-6
-0.416, -2.932e-6
-0.417, -2.939e-6
-0.418, -2.947e-6
-0.419, -2.954e-6
-0.420, -2.961e-6
-0.421, -2.969e-6
-0.422, -2.976e-6
-0.423, -2.983e-6
-0.424, -2.991e-6
-0.425, -2.998e-6
-0.426, -3.005e-6
-0.427, -3.012e-6
-0.428, -3.020e-6
-0.429, -3.027e-6
-0.430, -3.034e-6
-0.431, -3.042e-6
-0.432, -3.050e-6
-0.433, -3.056e-6
-0.434, -3.064e-6
-0.435, -3.071e-6
-0.436, -3.078e-6
-0.437, -3.085e-6
-0.438, -3.093e-6
-0.439, -3.100e-6
-0.440, -3.108e-6
-0.441, -3.115e-6
-0.442, -3.123e-6
-0.443, -3.130e-6
-0.444, -3.137e-6
-0.445, -3.144e-6
-0.446, -3.152e-6
-0.447, -3.159e-6
-0.448, -3.167e-6
-0.449, -3.174e-6
-0.450, -3.182e-6
-0.451, -3.189e-6
-0.452, -3.197e-6
-0.453, -3.204e-6
-0.454, -3.212e-6
-0.455, -3.219e-6
-0.456, -3.227e-6
-0.457, -3.234e-6
-0.458, -3.241e-6
-0.459, -3.248e-6
-0.460, -3.256e-6
-0.461, -3.264e-6
-0.462, -3.271e-6
-0.463, -3.279e-6
-0.464, -3.286e-6
-0.465, -3.293e-6
-0.466, -3.301e-6
-0.467, -3.308e-6
-0.468, -3.317e-6
-0.469, -3.324e-6
-0.470, -3.331e-6
-0.471, -3.339e-6
-0.472, -3.347e-6
-0.473, -3.354e-6
-0.474, -3.362e-6
-0.475, -3.369e-6
-0.476, -3.377e-6
-0.477, -3.385e-6
-0.478, -3.393e-6
-0.479, -3.400e-6
-0.480, -3.408e-6
-0.481, -3.415e-6
-0.482, -3.423e-6
-0.483, -3.431e-6
-0.484, -3.439e-6
-0.485, -3.447e-6
-0.486, -3.455e-6
-0.487, -3.462e-6
-0.488, -3.470e-6
-0.489, -3.478e-6
-0.490, -3.486e-6
-0.491, -3.494e-6
-0.492, -3.502e-6
-0.493, -3.510e-6
-0.494, -3.518e-6
-0.495, -3.526e-6
-0.496, -3.534e-6
-0.497, -3.541e-6
-0.498, -3.550e-6
-0.499, -3.558e-6
-0.500, -3.567e-6
-0.501, -3.574e-6
-0.502, -3.583e-6
-0.503, -3.591e-6
-0.504, -3.599e-6
-0.505, -3.608e-6
-0.506, -3.616e-6
-0.507, -3.624e-6
-0.508, -3.633e-6
-0.509, -3.641e-6
-0.510, -3.650e-6
-0.511, -3.658e-6
-0.512, -3.667e-6
-0.513, -3.676e-6
-0.514, -3.685e-6
-0.515, -3.693e-6
-0.516, -3.702e-6
-0.517, -3.711e-6
-0.518, -3.720e-6
-0.519, -3.729e-6
-0.520, -3.738e-6
-0.521, -3.747e-6
-0.522, -3.757e-6
-0.523, -3.765e-6
-0.524, -3.776e-6
-0.525, -3.784e-6
-0.526, -3.794e-6
-0.527, -3.803e-6
-0.528, -3.813e-6
-0.529, -3.822e-6
-0.530, -3.833e-6
-0.531, -3.842e-6
-0.532, -3.853e-6
-0.533, -3.862e-6
-0.534, -3.872e-6
-0.535, -3.882e-6
-0.536, -3.893e-6
-0.537, -3.903e-6
-0.538, -3.913e-6
-0.539, -3.923e-6
-0.540, -3.934e-6
-0.541, -3.945e-6
-0.542, -3.956e-6
-0.543, -3.966e-6
-0.544, -3.977e-6
-0.545, -3.988e-6
-0.546, -4.000e-6
-0.547, -4.010e-6
-0.548, -4.022e-6
-0.549, -4.033e-6
-0.550, -4.045e-6
-0.551, -4.056e-6
-0.552, -4.067e-6
-0.553, -4.079e-6
-0.554, -4.090e-6
-0.555, -4.102e-6
-0.556, -4.114e-6
-0.557, -4.126e-6
-0.558, -4.137e-6
-0.559, -4.150e-6
-0.560, -4.161e-6
-0.561, -4.173e-6
-0.562, -4.185e-6
-0.563, -4.197e-6
-0.564, -4.209e-6
-0.565, -4.221e-6
-0.566, -4.232e-6
-0.567, -4.244e-6
-0.568, -4.256e-6
-0.569, -4.268e-6
-0.570, -4.280e-6
-0.571, -4.292e-6
-0.572, -4.303e-6
-0.573, -4.315e-6
-0.574, -4.327e-6
-0.575, -4.338e-6
-0.576, -4.350e-6
-0.577, -4.362e-6
-0.578, -4.373e-6
-0.579, -4.384e-6
-0.580, -4.396e-6
-0.581, -4.407e-6
-0.582, -4.418e-6
-0.583, -4.429e-6
-0.584, -4.441e-6
-0.585, -4.451e-6
-0.586, -4.462e-6
-0.587, -4.473e-6
-0.588, -4.484e-6
-0.589, -4.494e-6
-0.590, -4.504e-6
-0.591, -4.515e-6
-0.592, -4.525e-6
-0.593, -4.535e-6
-0.594, -4.546e-6
-0.595, -4.555e-6
-0.596, -4.565e-6
-0.597, -4.576e-6
-0.598, -4.586e-6
-0.599, -4.595e-6
-0.600, -4.605e-6
-0.601, -4.614e-6
-0.602, -4.624e-6
-0.603, -4.633e-6
-0.604, -4.643e-6
-0.605, -4.651e-6
-0.606, -4.660e-6
-0.607, -4.669e-6
-0.608, -4.678e-6
-0.609, -4.687e-6
-0.610, -4.696e-6
-0.611, -4.704e-6
-0.612, -4.713e-6
-0.613, -4.721e-6
-0.614, -4.730e-6
-0.615, -4.739e-6
-0.616, -4.747e-6
-0.617, -4.755e-6
-0.618, -4.763e-6
-0.619, -4.771e-6
-0.620, -4.779e-6
-0.621, -4.787e-6
-0.622, -4.795e-6
-0.623, -4.803e-6
-0.624, -4.810e-6
-0.625, -4.818e-6
-0.626, -4.825e-6
-0.627, -4.833e-6
-0.628, -4.841e-6
-0.629, -4.848e-6
-0.630, -4.855e-6
-0.631, -4.862e-6
-0.632, -4.870e-6
-0.633, -4.877e-6
-0.634, -4.884e-6
-0.635, -4.891e-6
-0.636, -4.898e-6
-0.637, -4.905e-6
-0.638, -4.912e-6
-0.639, -4.919e-6
-0.640, -4.926e-6
-0.641, -4.933e-6
-0.642, -4.940e-6
-0.643, -4.946e-6
-0.644, -4.953e-6
-0.645, -4.960e-6
-0.646, -4.966e-6
-0.647, -4.973e-6
-0.648, -4.980e-6
-0.649, -4.986e-6
-0.650, -4.992e-6
-0.651, -4.998e-6
-0.652, -5.006e-6
-0.653, -5.012e-6
-0.654, -5.018e-6
-0.655, -5.024e-6
-0.656, -5.031e-6
-0.657, -5.037e-6
-0.658, -5.043e-6
-0.659, -5.049e-6
-0.660, -5.056e-6
-0.661, -5.062e-6
-0.662, -5.069e-6
-0.663, -5.075e-6
-0.664, -5.081e-6
-0.665, -5.087e-6
-0.666, -5.093e-6
-0.667, -5.099e-6
-0.668, -5.105e-6
-0.669, -5.111e-6
-0.670, -5.117e-6
-0.671, -5.123e-6
-0.672, -5.130e-6
-0.673, -5.135e-6
-0.674, -5.141e-6
-0.675, -5.147e-6
-0.676, -5.153e-6
-0.677, -5.159e-6
-0.678, -5.165e-6
-0.679, -5.170e-6
-0.680, -5.177e-6
-0.681, -5.182e-6
-0.682, -5.188e-6
-0.683, -5.194e-6
-0.684, -5.200e-6
-0.685, -5.205e-6
-0.686, -5.211e-6
-0.687, -5.217e-6
-0.688, -5.223e-6
-0.689, -5.228e-6
-0.690, -5.235e-6
-0.691, -5.240e-6
-0.692, -5.246e-6
-0.693, -5.252e-6
-0.694, -5.257e-6
-0.695, -5.263e-6
-0.696, -5.269e-6
-0.697, -5.275e-6
-0.698, -5.280e-6
-0.699, -5.286e-6
-0.700, -5.292e-6
-0.701, -5.297e-6
-0.702, -5.303e-6
-0.703, -5.309e-6
-0.704, -5.315e-6
-0.705, -5.320e-6
-0.706, -5.327e-6
-0.707, -5.332e-6
-0.708, -5.338e-6
-0.709, -5.344e-6
-0.710, -5.350e-6
-0.711, -5.355e-6
-0.712, -5.361e-6
-0.713, -5.366e-6
-0.714, -5.372e-6
-0.715, -5.378e-6
-0.716, -5.383e-6
-0.717, -5.389e-6
-0.718, -5.395e-6
-0.719, -5.401e-6
-0.720, -5.406e-6
-0.721, -5.412e-6
-0.722, -5.418e-6
-0.723, -5.424e-6
-0.724, -5.429e-6
-0.725, -5.435e-6
-0.726, -5.440e-6
-0.727, -5.446e-6
-0.728, -5.452e-6
-0.729, -5.457e-6
-0.730, -5.463e-6
-0.731, -5.469e-6
-0.732, -5.475e-6
-0.733, -5.481e-6
-0.734, -5.487e-6
-0.735, -5.492e-6
-0.736, -5.499e-6
-0.737, -5.504e-6
-0.738, -5.511e-6
-0.739, -5.516e-6
-0.740, -5.522e-6
-0.741, -5.528e-6
-0.742, -5.533e-6
-0.743, -5.539e-6
-0.744, -5.545e-6
-0.745, -5.551e-6
-0.746, -5.557e-6
-0.747, -5.563e-6
-0.748, -5.569e-6
-0.749, -5.575e-6
-0.750, -5.581e-6
-0.751, -5.587e-6
-0.752, -5.593e-6
-0.753, -5.599e-6
-0.754, -5.605e-6
-0.755, -5.611e-6
-0.756, -5.618e-6
-0.757, -5.624e-6
-0.758, -5.630e-6
-0.759, -5.635e-6
-0.760, -5.642e-6
-0.761, -5.648e-6
-0.762, -5.654e-6
-0.763, -5.660e-6
-0.764, -5.667e-6
-0.765, -5.673e-6
-0.766, -5.679e-6
-0.767, -5.685e-6
-0.768, -5.692e-6
-0.769, -5.698e-6
-0.770, -5.704e-6
-0.771, -5.710e-6
-0.772, -5.717e-6
-0.773, -5.723e-6
-0.774, -5.730e-6
-0.775, -5.736e-6
-0.776, -5.743e-6
-0.777, -5.749e-6
-0.778, -5.756e-6
-0.779, -5.762e-6
-0.780, -5.770e-6
-0.781, -5.776e-6
-0.782, -5.782e-6
-0.783, -5.789e-6
-0.784, -5.796e-6
-0.785, -5.802e-6
-0.786, -5.809e-6
-0.787, -5.816e-6
-0.788, -5.823e-6
-0.789, -5.830e-6
-0.790, -5.837e-6
-0.791, -5.844e-6
-0.792, -5.851e-6
-0.793, -5.857e-6
-0.794, -5.865e-6
-0.795, -5.871e-6
-0.796, -5.879e-6
-0.797, -5.886e-6
-0.798, -5.893e-6
-0.799, -5.900e-6
-0.800, -5.908e-6
-0.801, -5.915e-6
-0.802, -5.922e-6
-0.803, -5.930e-6
-0.804, -5.937e-6
-0.805, -5.945e-6
-0.806, -5.953e-6
-0.807, -5.960e-6
-0.808, -5.968e-6
-0.809, -5.975e-6
-0.810, -5.984e-6
-0.811, -5.991e-6
-0.812, -5.999e-6
-0.813, -6.007e-6
-0.814, -6.015e-6
-0.815, -6.024e-6
-0.816, -6.031e-6
-0.817, -6.039e-6
-0.818, -6.048e-6
-0.819, -6.056e-6
-0.820, -6.065e-6
-0.821, -6.073e-6
-0.822, -6.081e-6
-0.823, -6.090e-6
-0.824, -6.099e-6
-0.825, -6.107e-6
-0.826, -6.116e-6
-0.827, -6.124e-6
-0.828, -6.133e-6
-0.829, -6.142e-6
-0.830, -6.151e-6
-0.831, -6.161e-6
-0.832, -6.169e-6
-0.833, -6.179e-6
-0.834, -6.188e-6
-0.835, -6.198e-6
-0.836, -6.208e-6
-0.837, -6.217e-6
-0.838, -6.226e-6
-0.839, -6.236e-6
-0.840, -6.246e-6
-0.841, -6.256e-6
-0.842, -6.266e-6
-0.843, -6.276e-6
-0.844, -6.286e-6
-0.845, -6.296e-6
-0.846, -6.307e-6
-0.847, -6.317e-6
-0.848, -6.327e-6
-0.849, -6.338e-6
-0.850, -6.349e-6
-0.851, -6.360e-6
-0.852, -6.371e-6
-0.853, -6.382e-6
-0.854, -6.393e-6
-0.855, -6.404e-6
-0.856, -6.416e-6
-0.857, -6.427e-6
-0.858, -6.439e-6
-0.859, -6.451e-6
-0.860, -6.463e-6
-0.861, -6.475e-6
-0.862, -6.487e-6
-0.863, -6.500e-6
-0.864, -6.512e-6
-0.865, -6.525e-6
-0.866, -6.538e-6
-0.867, -6.550e-6
-0.868, -6.563e-6
-0.869, -6.576e-6
-0.870, -6.590e-6
-0.871, -6.603e-6
-0.872, -6.617e-6
-0.873, -6.631e-6
-0.874, -6.645e-6
-0.875, -6.659e-6
-0.876, -6.673e-6
-0.877, -6.689e-6
-0.878, -6.703e-6
-0.879, -6.717e-6
-0.880, -6.732e-6
-0.881, -6.747e-6
-0.882, -6.762e-6
-0.883, -6.778e-6
-0.884, -6.793e-6
-0.885, -6.809e-6
-0.886, -6.825e-6
-0.887, -6.841e-6
-0.888, -6.857e-6
-0.889, -6.874e-6
-0.890, -6.891e-6
-0.891, -6.908e-6
-0.892, -6.925e-6
-0.893, -6.943e-6
-0.894, -6.960e-6
-0.895, -6.977e-6
-0.896, -6.995e-6
-0.897, -7.013e-6
-0.898, -7.032e-6
-0.899, -7.050e-6
-0.900, -7.068e-6
-0.901, -7.087e-6
-0.902, -7.107e-6
-0.903, -7.126e-6
-0.904, -7.146e-6
-0.905, -7.166e-6
-0.906, -7.186e-6
-0.907, -7.206e-6
-0.908, -7.227e-6
-0.909, -7.248e-6
-0.910, -7.270e-6
-0.911, -7.291e-6
-0.912, -7.312e-6
-0.913, -7.335e-6
-0.914, -7.357e-6
-0.915, -7.380e-6
-0.916, -7.402e-6
-0.917, -7.426e-6
-0.918, -7.449e-6
-0.919, -7.472e-6
-0.920, -7.496e-6
-0.921, -7.521e-6
-0.922, -7.544e-6
-0.923, -7.569e-6
-0.924, -7.594e-6
-0.925, -7.619e-6
-0.926, -7.645e-6
-0.927, -7.671e-6
-0.928, -7.698e-6
-0.929, -7.724e-6
-0.930, -7.751e-6
-0.931, -7.779e-6
-0.932, -7.805e-6
-0.933, -7.834e-6
-0.934, -7.861e-6
-0.935, -7.890e-6
-0.936, -7.919e-6
-0.937, -7.948e-6
-0.938, -7.977e-6
-0.939, -8.007e-6
-0.940, -8.038e-6
-0.941, -8.069e-6
-0.942, -8.099e-6
-0.943, -8.131e-6
-0.944, -8.162e-6
-0.945, -8.195e-6
-0.946, -8.227e-6
-0.947, -8.260e-6
-0.948, -8.292e-6
-0.949, -8.326e-6
-0.950, -8.360e-6
-0.951, -8.394e-6
-0.952, -8.429e-6
-0.953, -8.464e-6
-0.954, -8.499e-6
-0.955, -8.535e-6
-0.956, -8.572e-6
-0.957, -8.609e-6
-0.958, -8.645e-6
-0.959, -8.683e-6
-0.960, -8.720e-6
-0.961, -8.759e-6
-0.962, -8.798e-6
-0.963, -8.838e-6
-0.964, -8.876e-6
-0.965, -8.917e-6
-0.966, -8.957e-6
-0.967, -8.998e-6
-0.968, -9.039e-6
-0.969, -9.082e-6
-0.970, -9.123e-6
-0.971, -9.166e-6
-0.972, -9.208e-6
-0.973, -9.253e-6
-0.974, -9.296e-6
-0.975, -9.342e-6
-0.976, -9.385e-6
-0.977, -9.431e-6
-0.978, -9.478e-6
-0.979, -9.524e-6
-0.980, -9.571e-6
-0.981, -9.619e-6
-0.982, -9.666e-6
-0.983, -9.715e-6
-0.984, -9.764e-6
-0.985, -9.815e-6
-0.986, -9.863e-6
-0.987, -9.914e-6
-0.988, -9.965e-6
-0.989, -1.002e-5
-0.990, -1.007e-5
-0.991, -1.012e-5
-0.992, -1.017e-5
-0.993, -1.023e-5
-0.994, -1.028e-5
-0.995, -1.034e-5
-0.996, -1.039e-5
-0.997, -1.045e-5
-0.998, -1.050e-5
-0.999, -1.056e-5

Segment 2:
-1.000, -1.060e-5
-0.999, -1.056e-5
-0.998, -1.049e-5
-0.997, -1.042e-5
-0.996, -1.035e-5
-0.995, -1.028e-5
-0.994, -1.021e-5
-0.993, -1.014e-5
-0.992, -1.008e-5
-0.991, -1.001e-5
-0.990, -9.944e-6
-0.989, -9.881e-6
-0.988, -9.817e-6
-0.987, -9.754e-6
-0.986, -9.691e-6
-0.985, -9.630e-6
-0.984, -9.568e-6
-0.983, -9.508e-6
-0.982, -9.448e-6
-0.981, -9.388e-6
-0.980, -9.329e-6
-0.979, -9.272e-6
-0.978, -9.214e-6
-0.977, -9.156e-6
-0.976, -9.100e-6
-0.975, -9.044e-6
-0.974, -8.988e-6
-0.973, -8.933e-6
-0.972, -8.878e-6
-0.971, -8.824e-6
-0.970, -8.770e-6
-0.969, -8.717e-6
-0.968, -8.664e-6
-0.967, -8.612e-6
-0.966, -8.559e-6
-0.965, -8.509e-6
-0.964, -8.456e-6
-0.963, -8.407e-6
-0.962, -8.357e-6
-0.961, -8.307e-6
-0.960, -8.257e-6
-0.959, -8.208e-6
-0.958, -8.158e-6
-0.957, -8.111e-6
-0.956, -8.064e-6
-0.955, -8.017e-6
-0.954, -7.969e-6
-0.953, -7.923e-6
-0.952, -7.876e-6
-0.951, -7.830e-6
-0.950, -7.785e-6
-0.949, -7.740e-6
-0.948, -7.695e-6
-0.947, -7.651e-6
-0.946, -7.607e-6
-0.945, -7.564e-6
-0.944, -7.521e-6
-0.943, -7.479e-6
-0.942, -7.435e-6
-0.941, -7.393e-6
-0.940, -7.351e-6
-0.939, -7.309e-6
-0.938, -7.268e-6
-0.937, -7.227e-6
-0.936, -7.186e-6
-0.935, -7.146e-6
-0.934, -7.106e-6
-0.933, -7.067e-6
-0.932, -7.028e-6
-0.931, -6.989e-6
-0.930, -6.951e-6
-0.929, -6.912e-6
-0.928, -6.874e-6
-0.927, -6.836e-6
-0.926, -6.799e-6
-0.925, -6.762e-6
-0.924, -6.725e-6
-0.923, -6.688e-6
-0.922, -6.651e-6
-0.921, -6.616e-6
-0.920, -6.580e-6
-0.919, -6.545e-6
-0.918, -6.510e-6
-0.917, -6.475e-6
-0.916, -6.440e-6
-0.915, -6.406e-6
-0.914, -6.372e-6
-0.913, -6.338e-6
-0.912, -6.304e-6
-0.911, -6.272e-6
-0.910, -6.238e-6
-0.909, -6.205e-6
-0.908, -6.173e-6
-0.907, -6.140e-6
-0.906, -6.108e-6
-0.905, -6.076e-6
-0.904, -6.045e-6
-0.903, -6.013e-6
-0.902, -5.982e-6
-0.901, -5.951e-6
-0.900, -5.920e-6
-0.899, -5.890e-6
-0.898, -5.860e-6
-0.897, -5.830e-6
-0.896, -5.800e-6
-0.895, -5.771e-6
-0.894, -5.741e-6
-0.893, -5.712e-6
-0.892, -5.684e-6
-0.891, -5.654e-6
-0.890, -5.626e-6
-0.889, -5.598e-6
-0.888, -5.569e-6
-0.887, -5.541e-6
-0.886, -5.514e-6
-0.885, -5.486e-6
-0.884, -5.459e-6
-0.883, -5.432e-6
-0.882, -5.405e-6
-0.881, -5.378e-6
-0.880, -5.352e-6
-0.879, -5.326e-6
-0.878, -5.299e-6
-0.877, -5.274e-6
-0.876, -5.248e-6
-0.875, -5.222e-6
-0.874, -5.197e-6
-0.873, -5.172e-6
-0.872, -5.147e-6
-0.871, -5.122e-6
-0.870, -5.098e-6
-0.869, -5.073e-6
-0.868, -5.048e-6
-0.867, -5.024e-6
-0.866, -5.000e-6
-0.865, -4.976e-6
-0.864, -4.953e-6
-0.863, -4.929e-6
-0.862, -4.906e-6
-0.861, -4.882e-6
-0.860, -4.860e-6
-0.859, -4.837e-6
-0.858, -4.814e-6
-0.857, -4.792e-6
-0.856, -4.769e-6
-0.855, -4.747e-6
-0.854, -4.725e-6
-0.853, -4.703e-6
-0.852, -4.681e-6
-0.851, -4.660e-6
-0.850, -4.639e-6
-0.849, -4.617e-6
-0.848, -4.596e-6
-0.847, -4.575e-6
-0.846, -4.554e-6
-0.845, -4.534e-6
-0.844, -4.513e-6
-0.843, -4.493e-6
-0.842, -4.472e-6
-0.841, -4.452e-6
-0.840, -4.432e-6
-0.839, -4.412e-6
-0.838, -4.392e-6
-0.837, -4.373e-6
-0.836, -4.353e-6
-0.835, -4.333e-6
-0.834, -4.314e-6
-0.833, -4.294e-6
-0.832, -4.276e-6
-0.831, -4.257e-6
-0.830, -4.238e-6
-0.829, -4.219e-6
-0.828, -4.201e-6
-0.827, -4.182e-6
-0.826, -4.164e-6
-0.825, -4.146e-6
-0.824, -4.127e-6
-0.823, -4.109e-6
-0.822, -4.092e-6
-0.821, -4.074e-6
-0.820, -4.056e-6
-0.819, -4.038e-6
-0.818, -4.020e-6
-0.817, -4.003e-6
-0.816, -3.986e-6
-0.815, -3.968e-6
-0.814, -3.952e-6
-0.813, -3.935e-6
-0.812, -3.918e-6
-0.811, -3.901e-6
-0.810, -3.885e-6
-0.809, -3.868e-6
-0.808, -3.852e-6
-0.807, -3.835e-6
-0.806, -3.819e-6
-0.805, -3.803e-6
-0.804, -3.787e-6
-0.803, -3.770e-6
-0.802, -3.755e-6
-0.801, -3.739e-6
-0.800, -3.723e-6
-0.799, -3.707e-6
-0.798, -3.692e-6
-0.797, -3.676e-6
-0.796, -3.661e-6
-0.795, -3.645e-6
-0.794, -3.631e-6
-0.793, -3.616e-6
-0.792, -3.601e-6
-0.791, -3.585e-6
-0.790, -3.571e-6
-0.789, -3.556e-6
-0.788, -3.541e-6
-0.787, -3.526e-6
-0.786, -3.512e-6
-0.785, -3.497e-6
-0.784, -3.483e-6
-0.783, -3.468e-6
-0.782, -3.454e-6
-0.781, -3.440e-6
-0.780, -3.426e-6
-0.779, -3.411e-6
-0.778, -3.398e-6
-0.777, -3.384e-6
-0.776, -3.370e-6
-0.775, -3.356e-6
-0.774, -3.342e-6
-0.773, -3.328e-6
-0.772, -3.315e-6
-0.771, -3.301e-6
-0.770, -3.288e-6
-0.769, -3.274e-6
-0.768, -3.261e-6
-0.767, -3.248e-6
-0.766, -3.235e-6
-0.765, -3.222e-6
-0.764, -3.209e-6
-0.763, -3.195e-6
-0.762, -3.182e-6
-0.761, -3.170e-6
-0.760, -3.157e-6
-0.759, -3.144e-6
-0.758, -3.131e-6
-0.757, -3.119e-6
-0.756, -3.106e-6
-0.755, -3.093e-6
-0.754, -3.081e-6
-0.753, -3.069e-6
-0.752, -3.056e-6
-0.751, -3.044e-6
-0.750, -3.031e-6
-0.749, -3.019e-6
-0.748, -3.007e-6
-0.747, -2.995e-6
-0.746, -2.982e-6
-0.745, -2.971e-6
-0.744, -2.959e-6
-0.743, -2.947e-6
-0.742, -2.935e-6
-0.741, -2.923e-6
-0.740, -2.911e-6
-0.739, -2.900e-6
-0.738, -2.888e-6
-0.737, -2.876e-6
-0.736, -2.865e-6
-0.735, -2.853e-6
-0.734, -2.841e-6
-0.733, -2.830e-6
-0.732, -2.818e-6
-0.731, -2.807e-6
-0.730, -2.796e-6
-0.729, -2.784e-6
-0.728, -2.773e-6
-0.727, -2.761e-6
-0.726, -2.750e-6
-0.725, -2.739e-6
-0.724, -2.728e-6
-0.723, -2.717e-6
-0.722, -2.706e-6
-0.721, -2.695e-6
-0.720, -2.684e-6
-0.719, -2.673e-6
-0.718, -2.662e-6
-0.717, -2.651e-6
-0.716, -2.641e-6
-0.715, -2.630e-6
-0.714, -2.619e-6
-0.713, -2.608e-6
-0.712, -2.597e-6
-0.711, -2.587e-6
-0.710, -2.576e-6
-0.709, -2.565e-6
-0.708, -2.554e-6
-0.707, -2.544e-6
-0.706, -2.534e-6
-0.705, -2.523e-6
-0.704, -2.513e-6
-0.703, -2.502e-6
-0.702, -2.492e-6
-0.701, -2.482e-6
-0.700, -2.471e-6
-0.699, -2.461e-6
-0.698, -2.450e-6
-0.697, -2.440e-6
-0.696, -2.430e-6
-0.695, -2.420e-6
-0.694, -2.410e-6
-0.693, -2.399e-6
-0.692, -2.389e-6
-0.691, -2.380e-6
-0.690, -2.370e-6
-0.689, -2.360e-6
-0.688, -2.350e-6
-0.687, -2.340e-6
-0.686, -2.330e-6
-0.685, -2.320e-6
-0.684, -2.310e-6
-0.683, -2.300e-6
-0.682, -2.290e-6
-0.681, -2.280e-6
-0.680, -2.270e-6
-0.679, -2.261e-6
-0.678, -2.251e-6
-0.677, -2.241e-6
-0.676, -2.231e-6
-0.675, -2.222e-6
-0.674, -2.212e-6
-0.673, -2.202e-6
-0.672, -2.193e-6
-0.671, -2.183e-6
-0.670, -2.173e-6
-0.669, -2.164e-6
-0.668, -2.154e-6
-0.667, -2.145e-6
-0.666, -2.136e-6
-0.665, -2.126e-6
-0.664, -2.116e-6
-0.663, -2.107e-6
-0.662, -2.098e-6
-0.661, -2.088e-6
-0.660, -2.079e-6
-0.659, -2.069e-6
-0.658, -2.060e-6
-0.657, -2.051e-6
-0.656, -2.042e-6
-0.655, -2.033e-6
-0.654, -2.023e-6
-0.653, -2.013e-6
-0.652, -2.004e-6
-0.651, -1.995e-6
-0.650, -1.986e-6
-0.649, -1.977e-6
-0.648, -1.967e-6
-0.647, -1.958e-6
-0.646, -1.949e-6
-0.645, -1.940e-6
-0.644, -1.931e-6
-0.643, -1.922e-6
-0.642, -1.913e-6
-0.641, -1.903e-6
-0.640, -1.894e-6
-0.639, -1.885e-6
-0.638, -1.876e-6
-0.637, -1.867e-6
-0.636, -1.858e-6
-0.635, -1.849e-6
-0.634, -1.840e-6
-0.633, -1.831e-6
-0.632, -1.822e-6
-0.631, -1.813e-6
-0.630, -1.805e-6
-0.629, -1.796e-6
-0.628, -1.787e-6
-0.627, -1.778e-6
-0.626, -1.769e-6
-0.625, -1.760e-6
-0.624, -1.751e-6
-0.623, -1.743e-6
-0.622, -1.733e-6
-0.621, -1.725e-6
-0.620, -1.716e-6
-0.619, -1.707e-6
-0.618, -1.699e-6
-0.617, -1.690e-6
-0.616, -1.681e-6
-0.615, -1.672e-6
-0.614, -1.664e-6
-0.613, -1.655e-6
-0.612, -1.647e-6
-0.611, -1.638e-6
-0.610, -1.629e-6
-0.609, -1.620e-6
-0.608, -1.612e-6
-0.607, -1.603e-6
-0.606, -1.595e-6
-0.605, -1.586e-6
-0.604, -1.577e-6
-0.603, -1.569e-6
-0.602, -1.560e-6
-0.601, -1.552e-6
-0.600, -1.543e-6
-0.599, -1.535e-6
-0.598, -1.526e-6
-0.597, -1.518e-6
-0.596, -1.509e-6
-0.595, -1.501e-6
-0.594, -1.493e-6
-0.593, -1.484e-6
-0.592, -1.476e-6
-0.591, -1.467e-6
-0.590, -1.459e-6
-0.589, -1.451e-6
-0.588, -1.442e-6
-0.587, -1.433e-6
-0.586, -1.425e-6
-0.585, -1.416e-6
-0.584, -1.408e-6
-0.583, -1.400e-6
-0.582, -1.392e-6
-0.581, -1.383e-6
-0.580, -1.375e-6
-0.579, -1.367e-6
-0.578, -1.358e-6
-0.577, -1.350e-6
-0.576, -1.342e-6
-0.575, -1.334e-6
-0.574, -1.325e-6
-0.573, -1.317e-6
-0.572, -1.309e-6
-0.571, -1.300e-6
-0.570, -1.292e-6
-0.569, -1.284e-6
-0.568, -1.275e-6
-0.567, -1.267e-6
-0.566, -1.259e-6
-0.565, -1.251e-6
-0.564, -1.242e-6
-0.563, -1.234e-6
-0.562, -1.226e-6
-0.561, -1.218e-6
-0.560, -1.210e-6
-0.559, -1.202e-6
-0.558, -1.193e-6
-0.557, -1.185e-6
-0.556, -1.177e-6
-0.555, -1.169e-6
-0.554, -1.161e-6
-0.553, -1.153e-6
-0.552, -1.144e-6
-0.551, -1.136e-6
-0.550, -1.128e-6
-0.549, -1.120e-6
-0.548, -1.112e-6
-0.547, -1.104e-6
-0.546, -1.095e-6
-0.545, -1.087e-6
-0.544, -1.079e-6
-0.543, -1.071e-6
-0.542, -1.063e-6
-0.541, -1.055e-6
-0.540, -1.047e-6
-0.539, -1.039e-6
-0.538, -1.031e-6
-0.537, -1.023e-6
-0.536, -1.015e-6
-0.535, -1.007e-6
-0.534, -9.985e-7
-0.533, -9.904e-7
-0.532, -9.820e-7
-0.531, -9.740e-7
-0.530, -9.662e-7
-0.529, -9.581e-7
-0.528, -9.502e-7
-0.527, -9.422e-7
-0.526, -9.336e-7
-0.525, -9.258e-7
-0.524, -9.178e-7
-0.523, -9.100e-7
-0.522, -9.018e-7
-0.521, -8.942e-7
-0.520, -8.860e-7
-0.519, -8.777e-7
-0.518, -8.697e-7
-0.517, -8.620e-7
-0.516, -8.535e-7
-0.515, -8.456e-7
-0.514, -8.379e-7
-0.513, -8.294e-7
-0.512, -8.217e-7
-0.511, -8.144e-7
-0.510, -8.059e-7
-0.509, -7.983e-7
-0.508, -7.907e-7
-0.507, -7.823e-7
-0.506, -7.739e-7
-0.505, -7.664e-7
-0.504, -7.581e-7
-0.503, -7.500e-7
-0.502, -7.423e-7
-0.501, -7.344e-7
-0.500, -7.267e-7
-0.499, -7.187e-7
-0.498, -7.103e-7
-0.497, -7.025e-7
-0.496, -6.946e-7
-0.495, -6.864e-7
-0.494, -6.784e-7
-0.493, -6.706e-7
-0.492, -6.623e-7
-0.491, -6.543e-7
-0.490, -6.466e-7
-0.489, -6.387e-7
-0.488, -6.307e-7
-0.487, -6.230e-7
-0.486, -6.151e-7
-0.485, -6.067e-7
-0.484, -5.988e-7
-0.483, -5.912e-7
-0.482, -5.831e-7
-0.481, -5.754e-7
-0.480, -5.677e-7
-0.479, -5.593e-7
-0.478, -5.512e-7
-0.477, -5.438e-7
-0.476, -5.359e-7
-0.475, -5.279e-7
-0.474, -5.205e-7
-0.473, -5.124e-7
-0.472, -5.041e-7
-0.471, -4.965e-7
-0.470, -4.886e-7
-0.469, -4.811e-7
-0.468, -4.736e-7
-0.467, -4.658e-7
-0.466, -4.579e-7
-0.465, -4.499e-7
-0.464, -4.421e-7
-0.463, -4.345e-7
-0.462, -4.265e-7
-0.461, -4.190e-7
-0.460, -4.114e-7
-0.459, -4.035e-7
-0.458, -3.956e-7
-0.457, -3.882e-7
-0.456, -3.806e-7
-0.455, -3.735e-7
-0.454, -3.656e-7
-0.453, -3.582e-7
-0.452, -3.504e-7
-0.451, -3.427e-7
-0.450, -3.354e-7
-0.449, -3.283e-7
-0.448, -3.206e-7
-0.447, -3.133e-7
-0.446, -3.054e-7
-0.445, -2.979e-7
-0.444, -2.905e-7
-0.443, -2.830e-7
-0.442, -2.759e-7
-0.441, -2.684e-7
-0.440, -2.609e-7
-0.439, -2.537e-7
-0.438, -2.458e-7
-0.437, -2.389e-7
-0.436, -2.314e-7
-0.435, -2.246e-7
-0.434, -2.170e-7
-0.433, -2.098e-7
-0.432, -2.027e-7
-0.431, -1.952e-7
-0.430, -1.877e-7
-0.429, -1.810e-7
-0.428, -1.737e-7
-0.427, -1.662e-7
-0.426, -1.590e-7
-0.425, -1.523e-7
-0.424, -1.447e-7
-0.423, -1.377e-7
-0.422, -1.307e-7
-0.421, -1.235e-7
-0.420, -1.160e-7
-0.419, -1.093e-7
-0.418, -1.022e-7
-0.417, -9.491e-8
-0.416, -8.745e-8
-0.415, -8.107e-8
-0.414, -7.363e-8
-0.413, -6.693e-8
-0.412, -5.988e-8
-0.411, -5.287e-8
-0.410, -4.576e-8
-0.409, -3.892e-8
-0.408, -3.185e-8
-0.407, -2.488e-8
-0.406, -1.794e-8
-0.405, -1.091e-8
-0.404, -3.752e-9
-0.403, 3.015e-9
-0.402, 1.023e-8
-0.401, 1.715e-8
-0.400, 2.425e-8
-0.399, 3.086e-8
-0.398, 3.783e-8
-0.397, 4.440e-8
-0.396, 5.128e-8
-0.395, 5.804e-8
-0.394, 6.435e-8
-0.393, 7.136e-8
-0.392, 7.891e-8
-0.391, 8.540e-8
-0.390, 9.200e-8
-0.389, 9.900e-8
-0.388, 1.058e-7
-0.387, 1.120e-7
-0.386, 1.184e-7
-0.385, 1.259e-7
-0.384, 1.329e-7
-0.383, 1.391e-7
-0.382, 1.463e-7
-0.381, 1.529e-7
-0.380, 1.597e-7
-0.379, 1.659e-7
-0.378, 1.731e-7
-0.377, 1.798e-7
-0.376, 1.868e-7
-0.375, 1.931e-7
-0.374, 1.997e-7
-0.373, 2.061e-7
-0.372, 2.127e-7
-0.371, 2.194e-7
-0.370, 2.261e-7
-0.369, 2.330e-7
-0.368, 2.396e-7
-0.367, 2.461e-7
-0.366, 2.528e-7
-0.365, 2.588e-7
-0.364, 2.654e-7
-0.363, 2.723e-7
-0.362, 2.787e-7
-0.361, 2.851e-7
-0.360, 2.923e-7
-0.359, 2.986e-7
-0.358, 3.052e-7
-0.357, 3.114e-7
-0.356, 3.184e-7
-0.355, 3.243e-7
-0.354, 3.310e-7
-0.353, 3.374e-7
-0.352, 3.445e-7
-0.351, 3.505e-7
-0.350, 3.574e-7
-0.349, 3.631e-7
-0.348, 3.700e-7
-0.347, 3.763e-7
-0.346, 3.827e-7
-0.345, 3.890e-7
-0.344, 3.960e-7
-0.343, 4.019e-7
-0.342, 4.081e-7
-0.341, 4.144e-7
-0.340, 4.213e-7
-0.339, 4.273e-7
-0.338, 4.337e-7
-0.337, 4.399e-7
-0.336, 4.465e-7
-0.335, 4.526e-7
-0.334, 4.589e-7
-0.333, 4.650e-7
-0.332, 4.714e-7
-0.331, 4.779e-7
-0.330, 4.841e-7
-0.329, 4.901e-7
-0.328, 4.968e-7
-0.327, 5.030e-7
-0.326, 5.090e-7
-0.325, 5.153e-7
-0.324, 5.218e-7
-0.323, 5.274e-7
-0.322, 5.337e-7
-0.321, 5.400e-7
-0.320, 5.462e-7
-0.319, 5.523e-7
-0.318, 5.587e-7
-0.317, 5.648e-7
-0.316, 5.711e-7
-0.315, 5.770e-7
-0.314, 5.833e-7
-0.313, 5.893e-7
-0.312, 5.958e-7
-0.311, 6.016e-7
-0.310, 6.077e-7
-0.309, 6.139e-7
-0.308, 6.202e-7
-0.307, 6.257e-7
-0.306, 6.317e-7
-0.305, 6.378e-7
-0.304, 6.440e-7
-0.303, 6.496e-7
-0.302, 6.557e-7
-0.301, 6.618e-7
-0.300, 6.683e-7
-0.299, 6.741e-7
-0.298, 6.800e-7
-0.297, 6.858e-7
-0.296, 6.921e-7
-0.295, 6.978e-7
-0.294, 7.036e-7
-0.293, 7.095e-7
-0.292, 7.164e-7
-0.291, 7.218e-7
-0.290, 7.277e-7
-0.289, 7.336e-7
-0.288, 7.399e-7
-0.287, 7.455e-7
-0.286, 7.515e-7
-0.285, 7.569e-7
-0.284, 7.634e-7
-0.283, 7.695e-7
-0.282, 7.755e-7
-0.281, 7.808e-7
-0.280, 7.872e-7
-0.279, 7.925e-7
-0.278, 7.985e-7
-0.277, 8.038e-7
-0.276, 8.103e-7
-0.275, 8.159e-7
-0.274, 8.223e-7
-0.273, 8.277e-7
-0.272, 8.338e-7
-0.271, 8.392e-7
-0.270, 8.453e-7
-0.269, 8.502e-7
-0.268, 8.566e-7
-0.267, 8.621e-7
-0.266, 8.681e-7
-0.265, 8.735e-7
-0.264, 8.801e-7
-0.263, 8.854e-7
-0.262, 8.914e-7
-0.261, 8.966e-7
-0.260, 9.028e-7
-0.259, 9.082e-7
-0.258, 9.141e-7
-0.257, 9.195e-7
-0.256, 9.255e-7
-0.255, 9.313e-7
-0.254, 9.374e-7
-0.253, 9.426e-7
-0.252, 9.481e-7
-0.251, 9.536e-7
-0.250, 9.598e-7
-0.249, 9.650e-7
-0.248, 9.710e-7
-0.247, 9.762e-7
-0.246, 9.827e-7
-0.245, 9.878e-7
-0.244, 9.938e-7
-0.243, 9.987e-7
-0.242, 1.005e-6
-0.241, 1.011e-6
-0.240, 1.016e-6
-0.239, 1.021e-6
-0.238, 1.027e-6
-0.237, 1.033e-6
-0.236, 1.039e-6
-0.235, 1.044e-6
-0.234, 1.049e-6
-0.233, 1.055e-6
-0.232, 1.061e-6
-0.231, 1.066e-6
-0.230, 1.072e-6
-0.229, 1.077e-6
-0.228, 1.083e-6
-0.227, 1.088e-6
-0.226, 1.094e-6
-0.225, 1.099e-6
-0.224, 1.105e-6
-0.223, 1.110e-6
-0.222, 1.116e-6
-0.221, 1.121e-6
-0.220, 1.127e-6
-0.219, 1.132e-6
-0.218, 1.138e-6
-0.217, 1.143e-6
-0.216, 1.149e-6
-0.215, 1.155e-6
-0.214, 1.160e-6
-0.213, 1.165e-6
-0.212, 1.171e-6
-0.211, 1.176e-6
-0.210, 1.182e-6
-0.209, 1.187e-6
-0.208, 1.193e-6
-0.207, 1.198e-6
-0.206, 1.204e-6
-0.205, 1.209e-6
-0.204, 1.215e-6
-0.203, 1.220e-6
-0.202, 1.227e-6
-0.201, 1.231e-6
-0.200, 1.237e-6
-0.199, 1.242e-6
-0.198, 1.248e-6
-0.197, 1.253e-6
-0.196, 1.259e-6
-0.195, 1.264e-6
-0.194, 1.269e-6
-0.193, 1.275e-6
-0.192, 1.280e-6
-0.191, 1.285e-6
-0.190, 1.291e-6
-0.189, 1.296e-6
-0.188, 1.302e-6
-0.187, 1.307e-6
-0.186, 1.312e-6
-0.185, 1.317e-6
-0.184, 1.324e-6
-0.183, 1.328e-6
-0.182, 1.334e-6
-0.181, 1.338e-6
-0.180, 1.344e-6
-0.179, 1.349e-6
-0.178, 1.355e-6
-0.177, 1.360e-6
-0.176, 1.365e-6
-0.175, 1.370e-6
-0.174, 1.376e-6
-0.173, 1.381e-6
-0.172, 1.386e-6
-0.171, 1.390e-6
-0.170, 1.396e-6
-0.169, 1.401e-6
-0.168, 1.406e-6
-0.167, 1.411e-6
-0.166, 1.416e-6
-0.165, 1.420e-6
-0.164, 1.426e-6
-0.163, 1.430e-6
-0.162, 1.435e-6
-0.161, 1.439e-6
-0.160, 1.444e-6
-0.159, 1.448e-6
-0.158, 1.453e-6
-0.157, 1.457e-6
-0.156, 1.462e-6
-0.155, 1.466e-6
-0.154, 1.471e-6
-0.153, 1.475e-6
-0.152, 1.479e-6
-0.151, 1.483e-6
-0.150, 1.487e-6
-0.149, 1.491e-6
-0.148, 1.495e-6
-0.147, 1.499e-6
-0.146, 1.503e-6
-0.145, 1.506e-6
-0.144, 1.510e-6
-0.143, 1.512e-6
-0.142, 1.517e-6
-0.141, 1.519e-6
-0.140, 1.523e-6
-0.139, 1.526e-6
-0.138, 1.529e-6
-0.137, 1.532e-6
-0.136, 1.535e-6
-0.135, 1.538e-6
-0.134, 1.542e-6
-0.133, 1.545e-6
-0.132, 1.549e-6
-0.131, 1.552e-6
-0.130, 1.556e-6
-0.129, 1.560e-6
-0.128, 1.564e-6
-0.127, 1.567e-6
-0.126, 1.572e-6
-0.125, 1.575e-6
-0.124, 1.579e-6
-0.123, 1.583e-6
-0.122, 1.587e-6
-0.121, 1.591e-6
-0.120, 1.595e-6
-0.119, 1.599e-6
-0.118, 1.603e-6
-0.117, 1.607e-6
-0.116, 1.611e-6
-0.115, 1.614e-6
-0.114, 1.619e-6
-0.113, 1.622e-6
-0.112, 1.627e-6
-0.111, 1.630e-6
-0.110, 1.634e-6
-0.109, 1.638e-6
-0.108, 1.643e-6
-0.107, 1.647e-6
-0.106, 1.651e-6
-0.105, 1.654e-6
-0.104, 1.659e-6
-0.103, 1.662e-6
-0.102, 1.666e-6
-0.101, 1.670e-6
-0.100, 1.674e-6
-0.099, 1.677e-6
-0.098, 1.682e-6
-0.097, 1.685e-6
-0.096, 1.689e-6
-0.095, 1.693e-6
-0.094, 1.698e-6
-0.093, 1.701e-6
-0.092, 1.705e-6
-0.091, 1.709e-6
-0.090, 1.713e-6
-0.089, 1.717e-6
-0.088, 1.721e-6
-0.087, 1.724e-6
-0.086, 1.729e-6
-0.085, 1.732e-6
-0.084, 1.736e-6
-0.083, 1.739e-6
-0.082, 1.744e-6
-0.081, 1.748e-6
-0.080, 1.752e-6
-0.079, 1.755e-6
-0.078, 1.759e-6
-0.077, 1.762e-6
-0.076, 1.766e-6
-0.075, 1.770e-6
-0.074, 1.774e-6
-0.073, 1.777e-6
-0.072, 1.781e-6
-0.071, 1.784e-6
-0.070, 1.788e-6
-0.069, 1.791e-6
-0.068, 1.795e-6
-0.067, 1.799e-6
-0.066, 1.803e-6
-0.065, 1.806e-6
-0.064, 1.810e-6
-0.063, 1.813e-6
-0.062, 1.818e-6
-0.061, 1.820e-6
-0.060, 1.824e-6
-0.059, 1.827e-6
-0.058, 1.831e-6
-0.057, 1.834e-6
-0.056, 1.839e-6
-0.055, 1.841e-6
-0.054, 1.845e-6
-0.053, 1.848e-6
-0.052, 1.853e-6
-0.051, 1.855e-6
-0.050, 1.860e-6
-0.049, 1.863e-6
-0.048, 1.867e-6
-0.047, 1.869e-6
-0.046, 1.874e-6
-0.045, 1.876e-6
-0.044, 1.880e-6
-0.043, 1.883e-6
-0.042, 1.887e-6
-0.041, 1.890e-6
-0.040, 1.894e-6
-0.039, 1.897e-6
-0.038, 1.900e-6
-0.037, 1.903e-6
-0.036, 1.908e-6
-0.035, 1.910e-6
-0.034, 1.914e-6
-0.033, 1.917e-6
-0.032, 1.921e-6
-0.031, 1.923e-6
-0.030, 1.927e-6
-0.029, 1.930e-6
-0.028, 1.933e-6
-0.027, 1.936e-6
-0.026, 1.940e-6
-0.025, 1.942e-6
-0.024, 1.946e-6
-0.023, 1.949e-6
-0.022, 1.952e-6
-0.021, 1.955e-6
-0.020, 1.959e-6
-0.019, 1.962e-6
-0.018, 1.966e-6
-0.017, 1.968e-6
-0.016, 1.972e-6
-0.015, 1.974e-6
-0.014, 1.978e-6
-0.013, 1.980e-6
-0.012, 1.984e-6
-0.011, 1.987e-6
-0.010, 1.990e-6
-0.009, 1.992e-6
-0.008, 1.996e-6
-0.007, 1.999e-6
-0.006, 2.002e-6
-0.005, 2.004e-6
-0.004, 2.008e-6
-0.003, 2.011e-6
-0.002, 2.014e-6
-0.001, 2.017e-6
-0.000, 2.020e-6
0.001, 2.022e-6
0.002, 2.026e-6
0.003, 2.028e-6
0.004, 2.031e-6
0.005, 2.034e-6
0.006, 2.037e-6
0.007, 2.040e-6
0.008, 2.043e-6
0.009, 2.046e-6
0.010, 2.049e-6
0.011, 2.051e-6
0.012, 2.055e-6
0.013, 2.057e-6
0.014, 2.060e-6
0.015, 2.063e-6
0.016, 2.066e-6
0.017, 2.068e-6
0.018, 2.072e-6
0.019, 2.074e-6
0.020, 2.077e-6
0.021, 2.079e-6
0.022, 2.082e-6
0.023, 2.085e-6
0.024, 2.088e-6
0.025, 2.090e-6
0.026, 2.093e-6
0.027, 2.095e-6
0.028, 2.098e-6
0.029, 2.100e-6
0.030, 2.104e-6
0.031, 2.106e-6
0.032, 2.109e-6
0.033, 2.111e-6
0.034, 2.114e-6
0.035, 2.116e-6
0.036, 2.120e-6
0.037, 2.122e-6
0.038, 2.125e-6
0.039, 2.126e-6
0.040, 2.130e-6
0.041, 2.132e-6
0.042, 2.135e-6
0.043, 2.137e-6
0.044, 2.140e-6
0.045, 2.142e-6
0.046, 2.145e-6
0.047, 2.147e-6
0.048, 2.150e-6
0.049, 2.152e-6
0.050, 2.155e-6
0.051, 2.157e-6
0.052, 2.160e-6
0.053, 2.162e-6
0.054, 2.165e-6
0.055, 2.166e-6
0.056, 2.169e-6
0.057, 2.171e-6
0.058, 2.174e-6
0.059, 2.176e-6
0.060, 2.179e-6
0.061, 2.181e-6
0.062, 2.184e-6
0.063, 2.186e-6
0.064, 2.188e-6
0.065, 2.190e-6
0.066, 2.193e-6
0.067, 2.195e-6
0.068, 2.197e-6
0.069, 2.199e-6
0.070, 2.202e-6
0.071, 2.204e-6
0.072, 2.207e-6
0.073, 2.208e-6
0.074, 2.211e-6
0.075, 2.212e-6
0.076, 2.215e-6
0.077, 2.217e-6
0.078, 2.219e-6
0.079, 2.221e-6
0.080, 2.223e-6
0.081, 2.225e-6
0.082, 2.228e-6
0.083, 2.230e-6
0.084, 2.233e-6
0.085, 2.234e-6
0.086, 2.237e-6
0.087, 2.238e-6
0.088, 2.241e-6
0.089, 2.243e-6
0.090, 2.245e-6
0.091, 2.247e-6
0.092, 2.249e-6
0.093, 2.250e-6
0.094, 2.253e-6
0.095, 2.255e-6
0.096, 2.257e-6
0.097, 2.259e-6
0.098, 2.261e-6
0.099, 2.262e-6
0.100, 2.265e-6
0.101, 2.267e-6
0.102, 2.269e-6
0.103, 2.270e-6
0.104, 2.272e-6
0.105, 2.274e-6
0.106, 2.276e-6
0.107, 2.277e-6
0.108, 2.281e-6
0.109, 2.282e-6
0.110, 2.285e-6
0.111, 2.286e-6
0.112, 2.288e-6
0.113, 2.289e-6
0.114, 2.292e-6
0.115, 2.293e-6
0.116, 2.296e-6
0.117, 2.297e-6
0.118, 2.300e-6
0.119, 2.301e-6
0.120, 2.303e-6
0.121, 2.305e-6
0.122, 2.307e-6
0.123, 2.308e-6
0.124, 2.311e-6
0.125, 2.312e-6
0.126, 2.315e-6
0.127, 2.316e-6
0.128, 2.318e-6
0.129, 2.319e-6
0.130, 2.321e-6
0.131, 2.322e-6
0.132, 2.325e-6
0.133, 2.326e-6
0.134, 2.329e-6
0.135, 2.330e-6
0.136, 2.332e-6
0.137, 2.333e-6
0.138, 2.336e-6
0.139, 2.337e-6
0.140, 2.340e-6
0.141, 2.341e-6
0.142, 2.343e-6
0.143, 2.344e-6
0.144, 2.346e-6
0.145, 2.347e-6
0.146, 2.350e-6
0.147, 2.350e-6
0.148, 2.353e-6
0.149, 2.354e-6
0.150, 2.356e-6
0.151, 2.357e-6
0.152, 2.359e-6
0.153, 2.360e-6
0.154, 2.363e-6
0.155, 2.363e-6
0.156, 2.366e-6
0.157, 2.366e-6
0.158, 2.369e-6
0.159, 2.369e-6
0.160, 2.371e-6
0.161, 2.372e-6
0.162, 2.375e-6
0.163, 2.375e-6
0.164, 2.377e-6
0.165, 2.378e-6
0.166, 2.380e-6
0.167, 2.380e-6
0.168, 2.383e-6
0.169, 2.383e-6
0.170, 2.385e-6
0.171, 2.385e-6
0.172, 2.388e-6
0.173, 2.388e-6
0.174, 2.390e-6
0.175, 2.391e-6
0.176, 2.392e-6
0.177, 2.393e-6
0.178, 2.395e-6
0.179, 2.395e-6
0.180, 2.397e-6
0.181, 2.397e-6
0.182, 2.399e-6
0.183, 2.399e-6
0.184, 2.401e-6
0.185, 2.402e-6
0.186, 2.404e-6
0.187, 2.404e-6
0.188, 2.406e-6
0.189, 2.406e-6
0.190, 2.408e-6
0.191, 2.409e-6
0.192, 2.411e-6
0.193, 2.411e-6
0.194, 2.413e-6
0.195, 2.413e-6
0.196, 2.415e-6
0.197, 2.416e-6
0.198, 2.418e-6
0.199, 2.418e-6