File: data/raw_data/electrochemistry/20170904_Gr-NH2_prod_for_Radisurf/initial blank cv.txt
Sept. 4, 2017   10:16:17
Cyclic Voltammetry
File: initial blank cv
Data Source:  Experiment
Instrument Model:  CHI601D
Header:
Note:

Init E (V) = 0
High E (V) = 0
Low E (V) = -1
Init P/N = N
Scan Rate (V/s) = 0.1
Segment = 2
Sample Interval (V) = 0.001
Quiet Time (sec) = 2
Sensitivity (A/V) = 1e-6

Potential/V, Current/A

Segment 1:
0.000, -1.074e-6
-0.001, -1.096e-6
-0.002, -1.105e-6
-0.003, -1.118e-6
-0.004, -1.122e-6
-0.005, -1.133e-6
-0.006, -1.134e-6
-0.007, -1.144e-6
-0.008, -1.146e-6
-0.009, -1.158e-6
-0.010, -1.161e-6
-0.011, -1.173e-6
-0.012, -1.176e-6
-0.013, -1.186e-6
-0.014, -1.187e-6
-0.015, -1.196e-6
-0.016, -1.196e-6
-0.017, -1.207e-6
-0.018, -1.210e-6
-0.019, -1.222e-6
-0.020, -1.225e-6
-0.021, -1.236e-6
-0.022, -1.236e-6
-0.023, -1.245e-6
-0.024, -1.246e-6
-0.025, -1.255e-6
-0.026, -1.257e-6
-0.027, -1.269e-6
-0.028, -1.272e-6
-0.029, -1.284e-6
-0.030, -1.285e-6
-0.031, -1.294e-6
-0.032, -1.294e-6
-0.033, -1.303e-6
-0.034, -1.305e-6
-0.035, -1.316e-6
-0.036, -1.319e-6
-0.037, -1.331e-6
-0.038, -1.333e-6
-0.039, -1.342e-6
-0.040, -1.342e-6
-0.041, -1.351e-6
-0.042, -1.351e-6
-0.043, -1.362e-6
-0.044, -1.365e-6
-0.045, -1.377e-6
-0.046, -1.380e-6
-0.047, -1.390e-6
-0.048, -1.390e-6
-0.049, -1.399e-6
-0.050, -1.399e-6
-0.051, -1.409e-6
-0.052, -1.412e-6
-0.053, -1.424e-6
-0.054, -1.427e-6
-0.055, -1.437e-6
-0.056, -1.439e-6
-0.057, -1.447e-6
-0.058, -1.447e-6
-0.059, -1.457e-6
-0.060, -1.459e-6
-0.061, -1.470e-6
-0.062, -1.473e-6
-0.063, -1.485e-6
-0.064, -1.487e-6
-0.065, -1.496e-6
-0.066, -1.496e-6
-0.067, -1.504e-6
-0.068, -1.505e-6
-0.069, -1.517e-6
-0.070, -1.520e-6
-0.071, -1.532e-6
-0.072, -1.535e-6
-0.073, -1.544e-6
-0.074, -1.544e-6
-0.075, -1.553e-6
-0.076, -1.553e-6
-0.077, -1.564e-6
-0.078, -1.567e-6
-0.079, -1.579e-6
-0.080, -1.582e-6
-0.081, -1.592e-6
-0.082, -1.593e-6
-0.083, -1.601e-6
-0.084, -1.602e-6
-0.085, -1.611e-6
-0.086, -1.614e-6
-0.087, -1.626e-6
-0.088, -1.630e-6
-0.089, -1.641e-6
-0.090, -1.642e-6
-0.091, -1.650e-6
-0.092, -1.651e-6
-0.093, -1.659e-6
-0.094, -1.662e-6
-0.095, -1.673e-6
-0.096, -1.677e-6
-0.097, -1.688e-6
-0.098, -1.691e-6
-0.099, -1.699e-6
-0.100, -1.699e-6
-0.101, -1.708e-6
-0.102, -1.709e-6
-0.103, -1.720e-6
-0.104, -1.724e-6
-0.105, -1.736e-6
-0.106, -1.739e-6
-0.107, -1.748e-6
-0.108, -1.749e-6
-0.109, -1.757e-6
-0.110, -1.758e-6
-0.111, -1.768e-6
-0.112, -1.772e-6
-0.113, -1.784e-6
-0.114, -1.787e-6
-0.115, -1.798e-6
-0.116, -1.799e-6
-0.117, -1.807e-6
-0.118, -1.807e-6
-0.119, -1.816e-6
-0.120, -1.820e-6
-0.121, -1.832e-6
-0.122, -1.836e-6
-0.123, -1.847e-6
-0.124, -1.849e-6
-0.125, -1.857e-6
-0.126, -1.857e-6
-0.127, -1.866e-6
-0.128, -1.869e-6
-0.129, -1.880e-6
-0.130, -1.885e-6
-0.131, -1.896e-6
-0.132, -1.898e-6
-0.133, -1.908e-6
-0.134, -1.908e-6
-0.135, -1.916e-6
-0.136, -1.918e-6
-0.137, -1.929e-6
-0.138, -1.933e-6
-0.139, -1.945e-6
-0.140, -1.949e-6
-0.141, -1.959e-6
-0.142, -1.960e-6
-0.143, -1.968e-6
-0.144, -1.969e-6
-0.145, -1.979e-6
-0.146, -1.983e-6
-0.147, -1.995e-6
-0.148, -1.999e-6
-0.149, -2.010e-6
-0.150, -2.012e-6
-0.151, -2.019e-6
-0.152, -2.020e-6
-0.153, -2.029e-6
-0.154, -2.032e-6
-0.155, -2.044e-6
-0.156, -2.049e-6
-0.157, -2.060e-6
-0.158, -2.063e-6
-0.159, -2.072e-6
-0.160, -2.072e-6
-0.161, -2.081e-6
-0.162, -2.084e-6
-0.163, -2.095e-6
-0.164, -2.099e-6
-0.165, -2.111e-6
-0.166, -2.115e-6
-0.167, -2.124e-6
-0.168, -2.125e-6
-0.169, -2.133e-6
-0.170, -2.135e-6
-0.171, -2.146e-6
-0.172, -2.150e-6
-0.173, -2.162e-6
-0.174, -2.167e-6
-0.175, -2.177e-6
-0.176, -2.178e-6
-0.177, -2.186e-6
-0.178, -2.188e-6
-0.179, -2.197e-6
-0.180, -2.201e-6
-0.181, -2.213e-6
-0.182, -2.218e-6
-0.183, -2.229e-6
-0.184, -2.231e-6
-0.185, -2.239e-6
-0.186, -2.241e-6
-0.187, -2.250e-6
-0.188, -2.253e-6
-0.189, -2.264e-6
-0.190, -2.270e-6
-0.191, -2.281e-6
-0.192, -2.285e-6
-0.193, -2.293e-6
-0.194, -2.295e-6
-0.195, -2.303e-6
-0.196, -2.305e-6
-0.197, -2.317e-6
-0.198, -2.322e-6
-0.199, -2.334e-6
-0.200, -2.338e-6
-0.201, -2.348e-6
-0.202, -2.349e-6
-0.203, -2.357e-6
-0.204, -2.359e-6
-0.205, -2.370e-6
-0.206, -2.374e-6
-0.207, -2.387e-6
-0.208, -2.392e-6
-0.209, -2.402e-6
-0.210, -2.405e-6
-0.211, -2.412e-6
-0.212, -2.414e-6
-0.213, -2.424e-6
-0.214, -2.428e-6
-0.215, -2.440e-6
-0.216, -2.446e-6
-0.217, -2.457e-6
-0.218, -2.460e-6
-0.219, -2.469e-6
-0.220, -2.470e-6
-0.221, -2.479e-6
-0.222, -2.483e-6
-0.223, -2.494e-6
-0.224, -2.500e-6
-0.225, -2.511e-6
-0.226, -2.516e-6
-0.227, -2.525e-6
-0.228, -2.526e-6
-0.229, -2.535e-6
-0.230, -2.538e-6
-0.231, -2.548e-6
-0.232, -2.554e-6
-0.233, -2.566e-6
-0.234, -2.571e-6
-0.235, -2.582e-6
-0.236, -2.584e-6
-0.237, -2.591e-6
-0.238, -2.594e-6
-0.239, -2.604e-6
-0.240, -2.609e-6
-0.241, -2.621e-6
-0.242, -2.627e-6
-0.243, -2.638e-6
-0.244, -2.641e-6
-0.245, -2.649e-6
-0.246, -2.651e-6
-0.247, -2.660e-6
-0.248, -2.665e-6
-0.249, -2.676e-6
-0.250, -2.682e-6
-0.251, -2.694e-6
-0.252, -2.698e-6
-0.253, -2.707e-6
-0.254, -2.709e-6
-0.255, -2.717e-6
-0.256, -2.721e-6
-0.257, -2.732e-6
-0.258, -2.739e-6
-0.259, -2.750e-6
-0.260, -2.756e-6
-0.261, -2.765e-6
-0.262, -2.767e-6
-0.263, -2.775e-6
-0.264, -2.779e-6
-0.265, -2.789e-6
-0.266, -2.795e-6
-0.267, -2.807e-6
-0.268, -2.814e-6
-0.269, -2.824e-6
-0.270, -2.827e-6
-0.271, -2.835e-6
-0.272, -2.837e-6
-0.273, -2.847e-6
-0.274, -2.853e-6
-0.275, -2.865e-6
-0.276, -2.871e-6
-0.277, -2.883e-6
-0.278, -2.887e-6
-0.279, -2.895e-6
-0.280, -2.897e-6
-0.281, -2.906e-6
-0.282, -2.911e-6
-0.283, -2.923e-6
-0.284, -2.930e-6
-0.285, -2.941e-6
-0.286, -2.946e-6
-0.287, -2.955e-6
-0.288, -2.958e-6
-0.289, -2.966e-6
-0.290, -2.970e-6
-0.291, -2.981e-6
-0.292, -2.988e-6
-0.293, -3.000e-6
-0.294, -3.006e-6
-0.295, -3.016e-6
-0.296, -3.019e-6
-0.297, -3.027e-6
-0.298, -3.030e-6
-0.299, -3.040e-6
-0.300, -3.047e-6
-0.301, -3.060e-6
-0.302, -3.066e-6
-0.303, -3.077e-6
-0.304, -3.081e-6
-0.305, -3.088e-6
-0.306, -3.092e-6
-0.307, -3.101e-6
-0.308, -3.106e-6
-0.309, -3.119e-6
-0.310, -3.126e-6
-0.311, -3.138e-6
-0.312, -3.143e-6
-0.313, -3.151e-6
-0.314, -3.154e-6
-0.315, -3.162e-6
-0.316, -3.168e-6
-0.317, -3.179e-6
-0.318, -3.187e-6
-0.319, -3.199e-6
-0.320, -3.205e-6
-0.321, -3.214e-6
-0.322, -3.217e-6
-0.323, -3.225e-6
-0.324, -3.229e-6
-0.325, -3.241e-6
-0.326, -3.248e-6
-0.327, -3.261e-6
-0.328, -3.268e-6
-0.329, -3.278e-6
-0.330, -3.281e-6
-0.331, -3.289e-6
-0.332, -3.293e-6
-0.333, -3.303e-6
-0.334, -3.310e-6
-0.335, -3.323e-6
-0.336, -3.330e-6
-0.337, -3.341e-6
-0.338, -3.346e-6
-0.339, -3.353e-6
-0.340, -3.357e-6
-0.341, -3.366e-6
-0.342, -3.372e-6
-0.343, -3.384e-6
-0.344, -3.393e-6
-0.345, -3.405e-6
-0.346, -3.410e-6
-0.347, -3.419e-6
-0.348, -3.422e-6
-0.349, -3.430e-6
-0.350, -3.436e-6
-0.351, -3.448e-6
-0.352, -3.456e-6
-0.353, -3.468e-6
-0.354, -3.475e-6
-0.355, -3.484e-6
-0.356, -3.487e-6
-0.357, -3.496e-6
-0.358, -3.501e-6
-0.359, -3.511e-6
-0.360, -3.520e-6
-0.361, -3.532e-6
-0.362, -3.539e-6
-0.363, -3.550e-6
-0.364, -3.554e-6
-0.365, -3.562e-6
-0.366, -3.566e-6
-0.367, -3.576e-6
-0.368, -3.583e-6
-0.369, -3.596e-6
-0.370, -3.604e-6
-0.371, -3.616e-6
-0.372, -3.621e-6
-0.373, -3.629e-6
-0.374, -3.633e-6
-0.375, -3.641e-6
-0.376, -3.648e-6
-0.377, -3.660e-6
-0.378, -3.669e-6
-0.379, -3.681e-6
-0.380, -3.688e-6
-0.381, -3.696e-6
-0.382, -3.700e-6
-0.383, -3.709e-6
-0.384, -3.714e-6
-0.385, -3.725e-6
-0.386, -3.735e-6
-0.387, -3.747e-6
-0.388, -3.755e-6
-0.389, -3.765e-6
-0.390, -3.769e-6
-0.391, -3.776e-6
-0.392, -3.781e-6
-0.393, -3.792e-6
-0.394, -3.800e-6
-0.395, -3.813e-6
-0.396, -3.821e-6
-0.397, -3.832e-6
-0.398, -3.837e-6
-0.399, -3.845e-6
-0.400, -3.849e-6
-0.401, -3.859e-6
-0.402, -3.866e-6
-0.403, -3.879e-6
-0.404, -3.888e-6
-0.405, -3.900e-6
-0.406, -3.906e-6
-0.407, -3.913e-6
-0.408, -3.918e-6
-0.409, -3.926e-6
-0.410, -3.933e-6
-0.411, -3.946e-6
-0.412, -3.955e-6
-0.413, -3.967e-6
-0.414, -3.974e-6
-0.415, -3.983e-6
-0.416, -3.987e-6
-0.417, -3.995e-6
-0.418, -4.001e-6
-0.419, -4.012e-6
-0.420, -4.021e-6
-0.421, -4.034e-6
-0.422, -4.042e-6
-0.423, -4.052e-6
-0.424, -4.057e-6
-0.425, -4.064e-6
-0.426, -4.069e-6
-0.427, -4.080e-6
-0.428, -4.089e-6
-0.429, -4.101e-6
-0.430, -4.111e-6
-0.431, -4.121e-6
-0.432, -4.127e-6
-0.433, -4.134e-6
-0.434, -4.139e-6
-0.435, -4.148e-6
-0.436, -4.156e-6
-0.437, -4.169e-6
-0.438, -4.178e-6
-0.439, -4.189e-6
-0.440, -4.196e-6
-0.441, -4.204e-6
-0.442, -4.209e-6
-0.443, -4.217e-6
-0.444, -4.224e-6
-0.445, -4.236e-6
-0.446, -4.246e-6
-0.447, -4.258e-6
-0.448, -4.266e-6
-0.449, -4.275e-6
-0.450, -4.280e-6
-0.451, -4.288e-6
-0.452, -4.293e-6
-0.453, -4.305e-6
-0.454, -4.314e-6
-0.455, -4.327e-6
-0.456, -4.336e-6
-0.457, -4.346e-6
-0.458, -4.351e-6
-0.459, -4.359e-6
-0.460, -4.364e-6
-0.461, -4.374e-6
-0.462, -4.382e-6
-0.463, -4.395e-6
-0.464, -4.404e-6
-0.465, -4.415e-6
-0.466, -4.422e-6
-0.467, -4.429e-6
-0.468, -4.434e-6
-0.469, -4.443e-6
-0.470, -4.451e-6
-0.471, -4.464e-6
-0.472, -4.474e-6
-0.473, -4.486e-6
-0.474, -4.494e-6
-0.475, -4.502e-6
-0.476, -4.507e-6
-0.477, -4.515e-6
-0.478, -4.522e-6
-0.479, -4.533e-6
-0.480, -4.543e-6
-0.481, -4.555e-6
-0.482, -4.565e-6
-0.483, -4.574e-6
-0.484, -4.578e-6
-0.485, -4.586e-6
-0.486, -4.592e-6
-0.487, -4.602e-6
-0.488, -4.612e-6
-0.489, -4.625e-6
-0.490, -4.634e-6
-0.491, -4.644e-6
-0.492, -4.651e-6
-0.493, -4.658e-6
-0.494, -4.663e-6
-0.495, -4.673e-6
-0.496, -4.682e-6
-0.497, -4.694e-6
-0.498, -4.705e-6
-0.499, -4.716e-6
-0.500, -4.723e-6
-0.501, -4.730e-6
-0.502, -4.735e-6
-0.503, -4.744e-6
-0.504, -4.752e-6
-0.505, -4.764e-6
-0.506, -4.774e-6
-0.507, -4.786e-6
-0.508, -4.794e-6
-0.509, -4.802e-6
-0.510, -4.807e-6
-0.511, -4.815e-6
-0.512, -4.821e-6
-0.513, -4.832e-6
-0.514, -4.843e-6
-0.515, -4.855e-6
-0.516, -4.865e-6
-0.517, -4.876e-6
-0.518, -4.882e-6
-0.519, -4.890e-6
-0.520, -4.896e-6
-0.521, -4.906e-6
-0.522, -4.915e-6
-0.523, -4.928e-6
-0.524, -4.938e-6
-0.525, -4.948e-6
-0.526, -4.954e-6
-0.527, -4.961e-6
-0.528, -4.967e-6
-0.529, -4.975e-6
-0.530, -4.985e-6
-0.531, -4.997e-6
-0.532, -5.007e-6
-0.533, -5.019e-6
-0.534, -5.026e-6
-0.535, -5.033e-6
-0.536, -5.039e-6
-0.537, -5.047e-6
-0.538, -5.055e-6
-0.539, -5.066e-6
-0.540, -5.077e-6
-0.541, -5.089e-6
-0.542, -5.097e-6
-0.543, -5.106e-6
-0.544, -5.111e-6
-0.545, -5.118e-6
-0.546, -5.126e-6
-0.547, -5.136e-6
-0.548, -5.147e-6
-0.549, -5.159e-6
-0.550, -5.169e-6
-0.551, -5.178e-6
-0.552, -5.185e-6
-0.553, -5.191e-6
-0.554, -5.197e-6
-0.555, -5.207e-6
-0.556, -5.217e-6
-0.557, -5.230e-6
-0.558, -5.240e-6
-0.559, -5.251e-6
-0.560, -5.258e-6
-0.561, -5.264e-6
-0.562, -5.270e-6
-0.563, -5.278e-6
-0.564, -5.287e-6
-0.565, -5.300e-6
-0.566, -5.310e-6
-0.567, -5.322e-6
-0.568, -5.330e-6
-0.569, -5.337e-6
-0.570, -5.343e-6
-0.571, -5.350e-6
-0.572, -5.358e-6
-0.573, -5.369e-6
-0.574, -5.380e-6
-0.575, -5.392e-6
-0.576, -5.402e-6
-0.577, -5.410e-6
-0.578, -5.416e-6
-0.579, -5.423e-6
-0.580, -5.429e-6
-0.581, -5.440e-6
-0.582, -5.451e-6
-0.583, -5.463e-6
-0.584, -5.474e-6
-0.585, -5.483e-6
-0.586, -5.489e-6
-0.587, -5.496e-6
-0.588, -5.502e-6
-0.589, -5.512e-6
-0.590, -5.521e-6
-0.591, -5.534e-6
-0.592, -5.545e-6
-0.593, -5.556e-6
-0.594, -5.563e-6
-0.595, -5.570e-6
-0.596, -5.576e-6
-0.597, -5.584e-6
-0.598, -5.593e-6
-0.599, -5.604e-6
-0.600, -5.616e-6
-0.601, -5.628e-6
-0.602, -5.636e-6
-0.603, -5.645e-6
-0.604, -5.650e-6
-0.605, -5.658e-6
-0.606, -5.666e-6
-0.607, -5.677e-6
-0.608, -5.688e-6
-0.609, -5.700e-6
-0.610, -5.710e-6
-0.611, -5.719e-6
-0.612, -5.724e-6
-0.613, -5.731e-6
-0.614, -5.738e-6
-0.615, -5.748e-6
-0.616, -5.759e-6
-0.617, -5.771e-6
-0.618, -5.781e-6
-0.619, -5.791e-6
-0.620, -5.798e-6
-0.621, -5.805e-6
-0.622, -5.811e-6
-0.623, -5.820e-6
-0.624, -5.830e-6
-0.625, -5.842e-6
-0.626, -5.854e-6
-0.627, -5.865e-6
-0.628, -5.872e-6
-0.629, -5.879e-6
-0.630, -5.884e-6
-0.631, -5.891e-6
-0.632, -5.900e-6
-0.633, -5.912e-6
-0.634, -5.924e-6
-0.635, -5.936e-6
-0.636, -5.944e-6
-0.637, -5.952e-6
-0.638, -5.957e-6
-0.639, -5.964e-6
-0.640, -5.972e-6
-0.641, -5.982e-6
-0.642, -5.994e-6
-0.643, -6.006e-6
-0.644, -6.016e-6
-0.645, -6.025e-6
-0.646, -6.031e-6
-0.647, -6.037e-6
-0.648, -6.044e-6
-0.649, -6.053e-6
-0.650, -6.063e-6
-0.651, -6.076e-6
-0.652, -6.087e-6
-0.653, -6.097e-6
-0.654, -6.104e-6
-0.655, -6.110e-6
-0.656, -6.116e-6
-0.657, -6.124e-6
-0.658, -6.134e-6
-0.659, -6.146e-6
-0.660, -6.157e-6
-0.661, -6.168e-6
-0.662, -6.176e-6
-0.663, -6.183e-6
-0.664, -6.189e-6
-0.665, -6.196e-6
-0.666, -6.204e-6
-0.667, -6.215e-6
-0.668, -6.227e-6
-0.669, -6.238e-6
-0.670, -6.248e-6
-0.671, -6.256e-6
-0.672, -6.261e-6
-0.673, -6.267e-6
-0.674, -6.275e-6
-0.675, -6.284e-6
-0.676, -6.296e-6
-0.677, -6.308e-6
-0.678, -6.319e-6
-0.679, -6.327e-6
-0.680, -6.333e-6
-0.681, -6.340e-6
-0.682, -6.346e-6
-0.683, -6.355e-6
-0.684, -6.365e-6
-0.685, -6.377e-6
-0.686, -6.388e-6
-0.687, -6.399e-6
-0.688, -6.406e-6
-0.689, -6.412e-6
-0.690, -6.418e-6
-0.691, -6.425e-6
-0.692, -6.434e-6
-0.693, -6.446e-6
-0.694, -6.457e-6
-0.695, -6.468e-6
-0.696, -6.477e-6
-0.697, -6.484e-6
-0.698, -6.489e-6
-0.699, -6.496e-6
-0.700, -6.504e-6
-0.701, -6.514e-6
-0.702, -6.526e-6
-0.703, -6.538e-6
-0.704, -6.548e-6
-0.705, -6.556e-6
-0.706, -6.562e-6
-0.707, -6.567e-6
-0.708, -6.574e-6
-0.709, -6.584e-6
-0.710, -6.595e-6
-0.711, -6.606e-6
-0.712, -6.618e-6
-0.713, -6.627e-6
-0.714, -6.634e-6
-0.715, -6.640e-6
-0.716, -6.646e-6
-0.717, -6.653e-6
-0.718, -6.663e-6
-0.719, -6.675e-6
-0.720, -6.686e-6
-0.721, -6.696e-6
-0.722, -6.704e-6
-0.723, -6.710e-6
-0.724, -6.715e-6
-0.725, -6.722e-6
-0.726, -6.731e-6
-0.727, -6.742e-6
-0.728, -6.755e-6
-0.729, -6.766e-6
-0.730, -6.775e-6
-0.731, -6.781e-6
-0.732, -6.787e-6
-0.733, -6.794e-6
-0.734, -6.802e-6
-0.735, -6.812e-6
-0.736, -6.823e-6
-0.737, -6.835e-6
-0.738, -6.845e-6
-0.739, -6.853e-6
-0.740, -6.858e-6
-0.741, -6.864e-6
-0.742, -6.871e-6
-0.743, -6.880e-6
-0.744, -6.891e-6
-0.745, -6.902e-6
-0.746, -6.913e-6
-0.747, -6.922e-6
-0.748, -6.930e-6
-0.749, -6.935e-6
-0.750, -6.941e-6
-0.751, -6.949e-6
-0.752, -6.958e-6
-0.753, -6.970e-6
-0.754, -6.981e-6
-0.755, -6.991e-6
-0.756, -6.999e-6
-0.757, -7.005e-6
-0.758, -7.010e-6
-0.759, -7.016e-6
-0.760, -7.025e-6
-0.761, -7.035e-6
-0.762, -7.047e-6
-0.763, -7.058e-6
-0.764, -7.067e-6
-0.765, -7.074e-6
-0.766, -7.079e-6
-0.767, -7.084e-6
-0.768, -7.092e-6
-0.769, -7.101e-6
-0.770, -7.113e-6
-0.771, -7.123e-6
-0.772, -7.134e-6
-0.773, -7.142e-6
-0.774, -7.148e-6
-0.775, -7.153e-6
-0.776, -7.160e-6
-0.777, -7.168e-6
-0.778, -7.179e-6
-0.779, -7.191e-6
-0.780, -7.203e-6
-0.781, -7.213e-6
-0.782, -7.220e-6
-0.783, -7.226e-6
-0.784, -7.232e-6
-0.785, -7.238e-6
-0.786, -7.248e-6
-0.787, -7.259e-6
-0.788, -7.271e-6
-0.789, -7.281e-6
-0.790, -7.289e-6
-0.791, -7.294e-6
-0.792, -7.300e-6
-0.793, -7.305e-6
-0.794, -7.313e-6
-0.795, -7.323e-6
-0.796, -7.334e-6
-0.797, -7.344e-6
-0.798, -7.354e-6
-0.799, -7.361e-6
-0.800, -7.366e-6
-0.801, -7.371e-6
-0.802, -7.378e-6
-0.803, -7.386e-6
-0.804, -7.397e-6
-0.805, -7.408e-6
-0.806, -7.419e-6
-0.807, -7.426e-6
-0.808, -7.433e-6
-0.809, -7.437e-6
-0.810, -7.442e-6
-0.811, -7.450e-6
-0.812, -7.460e-6
-0.813, -7.472e-6
-0.814, -7.482e-6
-0.815, -7.492e-6
-0.816, -7.499e-6
-0.817, -7.503e-6
-0.818, -7.508e-6
-0.819, -7.515e-6
-0.820, -7.524e-6
-0.821, -7.535e-6
-0.822, -7.546e-6
-0.823, -7.556e-6
-0.824, -7.565e-6
-0.825, -7.570e-6
-0.826, -7.575e-6
-0.827, -7.580e-6
-0.828, -7.588e-6
-0.829, -7.597e-6
-0.830, -7.608e-6
-0.831, -7.619e-6
-0.832, -7.629e-6
-0.833, -7.635e-6
-0.834, -7.642e-6
-0.835, -7.647e-6
-0.836, -7.654e-6
-0.837, -7.662e-6
-0.838, -7.674e-6
-0.839, -7.684e-6
-0.840, -7.695e-6
-0.841, -7.702e-6
-0.842, -7.708e-6
-0.843, -7.712e-6
-0.844, -7.718e-6
-0.845, -7.725e-6
-0.846, -7.736e-6
-0.847, -7.748e-6
-0.848, -7.759e-6
-0.849, -7.768e-6
-0.850, -7.775e-6
-0.851, -7.779e-6
-0.852, -7.784e-6
-0.853, -7.790e-6
-0.854, -7.799e-6
-0.855, -7.808e-6
-0.856, -7.820e-6
-0.857, -7.830e-6
-0.858, -7.838e-6
-0.859, -7.843e-6
-0.860, -7.847e-6
-0.861, -7.851e-6
-0.862, -7.859e-6
-0.863, -7.867e-6
-0.864, -7.879e-6
-0.865, -7.890e-6
-0.866, -7.899e-6
-0.867, -7.905e-6
-0.868, -7.909e-6
-0.869, -7.914e-6
-0.870, -7.920e-6
-0.871, -7.927e-6
-0.872, -7.938e-6
-0.873, -7.949e-6
-0.874, -7.960e-6
-0.875, -7.968e-6
-0.876, -7.975e-6
-0.877, -7.978e-6
-0.878, -7.983e-6
-0.879, -7.990e-6
-0.880, -7.999e-6
-0.881, -8.010e-6
-0.882, -8.022e-6
-0.883, -8.031e-6
-0.884, -8.039e-6
-0.885, -8.044e-6
-0.886, -8.049e-6
-0.887, -8.053e-6
-0.888, -8.062e-6
-0.889, -8.071e-6
-0.890, -8.082e-6
-0.891, -8.093e-6
-0.892, -8.102e-6
-0.893, -8.108e-6
-0.894, -8.112e-6
-0.895, -8.117e-6
-0.896, -8.124e-6
-0.897, -8.132e-6
-0.898, -8.144e-6
-0.899, -8.154e-6
-0.900, -8.164e-6
-0.901, -8.172e-6
-0.902, -8.177e-6
-0.903, -8.181e-6
-0.904, -8.188e-6
-0.905, -8.195e-6
-0.906, -8.205e-6
-0.907, -8.216e-6
-0.908, -8.228e-6
-0.909, -8.236e-6
-0.910, -8.243e-6
-0.911, -8.247e-6
-0.912, -8.253e-6
-0.913, -8.259e-6
-0.914, -8.268e-6
-0.915, -8.278e-6
-0.916, -8.291e-6
-0.917, -8.302e-6
-0.918, -8.310e-6
-0.919, -8.314e-6
-0.920, -8.319e-6
-0.921, -8.323e-6
-0.922, -8.331e-6
-0.923, -8.340e-6
-0.924, -8.353e-6
-0.925, -8.365e-6
-0.926, -8.375e-6
-0.927, -8.381e-6
-0.928, -8.386e-6
-0.929, -8.391e-6
-0.930, -8.399e-6
-0.931, -8.409e-6
-0.932, -8.421e-6
-0.933, -8.432e-6
-0.934, -8.443e-6
-0.935, -8.450e-6
-0.936, -8.457e-6
-0.937, -8.461e-6
-0.938, -8.467e-6
-0.939, -8.475e-6
-0.940, -8.486e-6
-0.941, -8.498e-6
-0.942, -8.511e-6
-0.943, -8.521e-6
-0.944, -8.529e-6
-0.945, -8.533e-6
-0.946, -8.539e-6
-0.947, -8.546e-6
-0.948, -8.556e-6
-0.949, -8.567e-6
-0.950, -8.581e-6
-0.951, -8.592e-6
-0.952, -8.603e-6
-0.953, -8.608e-6
-0.954, -8.613e-6
-0.955, -8.618e-6
-0.956, -8.628e-6
-0.957, -8.639e-6
-0.958, -8.654e-6
-0.959, -8.666e-6
-0.960, -8.677e-6
-0.961, -8.684e-6
-0.962, -8.693e-6
-0.963, -8.700e-6
-0.964, -8.708e-6
-0.965, -8.719e-6
-0.966, -8.734e-6
-0.967, -8.746e-6
-0.968, -8.760e-6
-0.969, -8.769e-6
-0.970, -8.778e-6
-0.971, -8.783e-6
-0.972, -8.792e-6
-0.973, -8.802e-6
-0.974, -8.815e-6
-0.975, -8.830e-6
-0.976, -8.845e-6
-0.977, -8.857e-6
-0.978, -8.868e-6
-0.979, -8.875e-6
-0.980, -8.883e-6
-0.981, -8.891e-6
-0.982, -8.904e-6
-0.983, -8.917e-6
-0.984, -8.934e-6
-0.985, -8.948e-6
-0.986, -8.962e-6
-0.987, -8.971e-6
-0.988, -8.979e-6
-0.989, -8.986e-6
-0.990, -8.998e-6
-0.991, -9.012e-6
-0.992, -9.029e-6
-0.993, -9.045e-6
-0.994, -9.062e-6
-0.995, -9.072e-6
-0.996, -9.083e-6
-0.997, -9.091e-6
-0.998, -9.103e-6
-0.999, -9.116e-6

Segment 2:
-1.000, -9.112e-6
-0.999, -9.046e-6
-0.998, -8.975e-6
-0.997, -8.902e-6
-0.996, -8.832e-6
-0.995, -8.762e-6
-0.994, -8.697e-6
-0.993, -8.632e-6
-0.992, -8.574e-6
-0.991, -8.521e-6
-0.990, -8.470e-6
-0.989, -8.417e-6
-0.988, -8.364e-6
-0.987, -8.308e-6
-0.986, -8.256e-6
-0.985, -8.202e-6
-0.984, -8.153e-6
-0.983, -8.106e-6
-0.982, -8.065e-6
-0.981, -8.022e-6
-0.980, -7.978e-6
-0.979, -7.931e-6
-0.978, -7.885e-6
-0.977, -7.838e-6
-0.976, -7.796e-6
-0.975, -7.755e-6
-0.974, -7.716e-6
-0.973, -7.677e-6
-0.972, -7.640e-6
-0.971, -7.599e-6
-0.970, -7.560e-6
-0.969, -7.518e-6
-0.968, -7.477e-6
-0.967, -7.438e-6
-0.966, -7.404e-6
-0.965, -7.371e-6
-0.964, -7.338e-6
-0.963, -7.303e-6
-0.962, -7.267e-6
-0.961, -7.228e-6
-0.960, -7.191e-6
-0.959, -7.156e-6
-0.958, -7.125e-6
-0.957, -7.097e-6
-0.956, -7.068e-6
-0.955, -7.036e-6
-0.954, -7.004e-6
-0.953, -6.969e-6
-0.952, -6.935e-6
-0.951, -6.901e-6
-0.950, -6.869e-6
-0.949, -6.839e-6
-0.948, -6.812e-6
-0.947, -6.785e-6
-0.946, -6.756e-6
-0.945, -6.724e-6
-0.944, -6.692e-6
-0.943, -6.661e-6
-0.942, -6.631e-6
-0.941, -6.603e-6
-0.940, -6.578e-6
-0.939, -6.551e-6
-0.938, -6.526e-6
-0.937, -6.499e-6
-0.936, -6.470e-6
-0.935, -6.440e-6
-0.934, -6.412e-6
-0.933, -6.386e-6
-0.932, -6.361e-6
-0.931, -6.338e-6
-0.930, -6.313e-6
-0.929, -6.289e-6
-0.928, -6.263e-6
-0.927, -6.234e-6
-0.926, -6.206e-6
-0.925, -6.180e-6
-0.924, -6.157e-6
-0.923, -6.134e-6
-0.922, -6.112e-6
-0.921, -6.090e-6
-0.920, -6.065e-6
-0.919, -6.039e-6
-0.918, -6.014e-6
-0.917, -5.988e-6
-0.916, -5.963e-6
-0.915, -5.941e-6
-0.914, -5.920e-6
-0.913, -5.899e-6
-0.912, -5.878e-6
-0.911, -5.854e-6
-0.910, -5.830e-6
-0.909, -5.804e-6
-0.908, -5.780e-6
-0.907, -5.758e-6
-0.906, -5.738e-6
-0.905, -5.720e-6
-0.904, -5.700e-6
-0.903, -5.678e-6
-0.902, -5.656e-6
-0.901, -5.632e-6
-0.900, -5.609e-6
-0.899, -5.587e-6
-0.898, -5.568e-6
-0.897, -5.549e-6
-0.896, -5.531e-6
-0.895, -5.511e-6
-0.894, -5.489e-6
-0.893, -5.468e-6
-0.892, -5.446e-6
-0.891, -5.424e-6
-0.890, -5.405e-6
-0.889, -5.386e-6
-0.888, -5.369e-6
-0.887, -5.351e-6
-0.886, -5.332e-6
-0.885, -5.312e-6
-0.884, -5.290e-6
-0.883, -5.269e-6
-0.882, -5.249e-6
-0.881, -5.231e-6
-0.880, -5.214e-6
-0.879, -5.197e-6
-0.878, -5.179e-6
-0.877, -5.160e-6
-0.876, -5.140e-6
-0.875, -5.120e-6
-0.874, -5.100e-6
-0.873, -5.082e-6
-0.872, -5.066e-6
-0.871, -5.050e-6
-0.870, -5.034e-6
-0.869, -5.016e-6
-0.868, -4.997e-6
-0.867, -4.977e-6
-0.866, -4.958e-6
-0.865, -4.940e-6
-0.864, -4.923e-6
-0.863, -4.909e-6
-0.862, -4.893e-6
-0.861, -4.877e-6
-0.860, -4.859e-6
-0.859, -4.840e-6
-0.858, -4.822e-6
-0.857, -4.803e-6
-0.856, -4.786e-6
-0.855, -4.771e-6
-0.854, -4.757e-6
-0.853, -4.742e-6
-0.852, -4.726e-6
-0.851, -4.708e-6
-0.850, -4.690e-6
-0.849, -4.672e-6
-0.848, -4.655e-6
-0.847, -4.640e-6
-0.846, -4.626e-6
-0.845, -4.612e-6
-0.844, -4.597e-6
-0.843, -4.581e-6
-0.842, -4.563e-6
-0.841, -4.546e-6
-0.840, -4.530e-6
-0.839, -4.514e-6
-0.838, -4.500e-6
-0.837, -4.487e-6
-0.836, -4.473e-6
-0.835, -4.457e-6
-0.834, -4.441e-6
-0.833, -4.423e-6
-0.832, -4.407e-6
-0.831, -4.392e-6
-0.830, -4.377e-6
-0.829, -4.364e-6
-0.828, -4.351e-6
-0.827, -4.337e-6
-0.826, -4.322e-6
-0.825, -4.306e-6
-0.824, -4.290e-6
-0.823, -4.273e-6
-0.822, -4.259e-6
-0.821, -4.246e-6
-0.820, -4.234e-6
-0.819, -4.220e-6
-0.818, -4.207e-6
-0.817, -4.192e-6
-0.816, -4.176e-6
-0.815, -4.160e-6
-0.814, -4.145e-6
-0.813, -4.131e-6
-0.812, -4.119e-6
-0.811, -4.106e-6
-0.810, -4.094e-6
-0.809, -4.080e-6
-0.808, -4.065e-6
-0.807, -4.049e-6
-0.806, -4.034e-6
-0.805, -4.020e-6
-0.804, -4.007e-6
-0.803, -3.996e-6
-0.802, -3.985e-6
-0.801, -3.971e-6
-0.800, -3.957e-6
-0.799, -3.942e-6
-0.798, -3.927e-6
-0.797, -3.913e-6
-0.796, -3.900e-6
-0.795, -3.889e-6
-0.794, -3.877e-6
-0.793, -3.866e-6
-0.792, -3.852e-6
-0.791, -3.838e-6
-0.790, -3.823e-6
-0.789, -3.809e-6
-0.788, -3.796e-6
-0.787, -3.785e-6
-0.786, -3.774e-6
-0.785, -3.763e-6
-0.784, -3.751e-6
-0.783, -3.738e-6
-0.782, -3.724e-6
-0.781, -3.710e-6
-0.780, -3.697e-6
-0.779, -3.684e-6
-0.778, -3.673e-6
-0.777, -3.663e-6
-0.776, -3.652e-6
-0.775, -3.639e-6
-0.774, -3.626e-6
-0.773, -3.611e-6
-0.772, -3.598e-6
-0.771, -3.585e-6
-0.770, -3.574e-6
-0.769, -3.564e-6
-0.768, -3.553e-6
-0.767, -3.542e-6
-0.766, -3.529e-6
-0.765, -3.515e-6
-0.764, -3.503e-6
-0.763, -3.489e-6
-0.762, -3.479e-6
-0.761, -3.468e-6
-0.760, -3.457e-6
-0.759, -3.446e-6
-0.758, -3.435e-6
-0.757, -3.422e-6
-0.756, -3.408e-6
-0.755, -3.395e-6
-0.754, -3.384e-6
-0.753, -3.372e-6
-0.752, -3.363e-6
-0.751, -3.353e-6
-0.750, -3.342e-6
-0.749, -3.330e-6
-0.748, -3.317e-6
-0.747, -3.303e-6
-0.746, -3.291e-6
-0.745, -3.280e-6
-0.744, -3.270e-6
-0.743, -3.260e-6
-0.742, -3.251e-6
-0.741, -3.240e-6
-0.740, -3.228e-6
-0.739, -3.215e-6
-0.738, -3.202e-6
-0.737, -3.191e-6
-0.736, -3.181e-6
-0.735, -3.171e-6
-0.734, -3.162e-6
-0.733, -3.151e-6
-0.732, -3.140e-6
-0.731, -3.127e-6
-0.730, -3.115e-6
-0.729, -3.103e-6
-0.728, -3.093e-6
-0.727, -3.083e-6
-0.726, -3.074e-6
-0.725, -3.064e-6
-0.724, -3.053e-6
-0.723, -3.041e-6
-0.722, -3.030e-6
-0.721, -3.017e-6
-0.720, -3.007e-6
-0.719, -2.997e-6
-0.718, -2.988e-6
-0.717, -2.979e-6
-0.716, -2.969e-6
-0.715, -2.958e-6
-0.714, -2.947e-6
-0.713, -2.935e-6
-0.712, -2.924e-6
-0.711, -2.913e-6
-0.710, -2.904e-6
-0.709, -2.895e-6
-0.708, -2.886e-6
-0.707, -2.876e-6
-0.706, -2.865e-6
-0.705, -2.853e-6
-0.704, -2.842e-6
-0.703, -2.831e-6
-0.702, -2.822e-6
-0.701, -2.813e-6
-0.700, -2.805e-6
-0.699, -2.795e-6
-0.698, -2.785e-6
-0.697, -2.773e-6
-0.696, -2.762e-6
-0.695, -2.751e-6
-0.694, -2.742e-6
-0.693, -2.733e-6
-0.692, -2.725e-6
-0.691, -2.716e-6
-0.690, -2.706e-6
-0.689, -2.695e-6
-0.688, -2.685e-6
-0.687, -2.673e-6
-0.686, -2.663e-6
-0.685, -2.654e-6
-0.684, -2.646e-6
-0.683, -2.637e-6
-0.682, -2.629e-6
-0.681, -2.618e-6
-0.680, -2.608e-6
-0.679, -2.597e-6
-0.678, -2.587e-6
-0.677, -2.577e-6
-0.676, -2.569e-6
-0.675, -2.561e-6
-0.674, -2.553e-6
-0.673, -2.543e-6
-0.672, -2.534e-6
-0.671, -2.523e-6
-0.670, -2.512e-6
-0.669, -2.502e-6
-0.668, -2.494e-6
-0.667, -2.486e-6
-0.666, -2.478e-6
-0.665, -2.469e-6
-0.664, -2.460e-6
-0.663, -2.450e-6
-0.662, -2.440e-6
-0.661, -2.429e-6
-0.660, -2.420e-6
-0.659, -2.412e-6
-0.658, -2.405e-6
-0.657, -2.396e-6
-0.656, -2.388e-6
-0.655, -2.378e-6
-0.654, -2.368e-6
-0.653, -2.357e-6
-0.652, -2.349e-6
-0.651, -2.339e-6
-0.650, -2.332e-6
-0.649, -2.324e-6
-0.648, -2.317e-6
-0.647, -2.308e-6
-0.646, -2.298e-6
-0.645, -2.288e-6
-0.644, -2.279e-6
-0.643, -2.270e-6
-0.642, -2.263e-6
-0.641, -2.255e-6
-0.640, -2.248e-6
-0.639, -2.239e-6
-0.638, -2.230e-6
-0.637, -2.219e-6
-0.636, -2.210e-6
-0.635, -2.201e-6
-0.634, -2.193e-6
-0.633, -2.185e-6
-0.632, -2.179e-6
-0.631, -2.171e-6
-0.630, -2.163e-6
-0.629, -2.153e-6
-0.628, -2.143e-6
-0.627, -2.133e-6
-0.626, -2.126e-6
-0.625, -2.117e-6
-0.624, -2.111e-6
-0.623, -2.104e-6
-0.622, -2.096e-6
-0.621, -2.087e-6
-0.620, -2.078e-6
-0.619, -2.067e-6
-0.618, -2.059e-6
-0.617, -2.051e-6
-0.616, -2.045e-6
-0.615, -2.037e-6
-0.614, -2.031e-6
-0.613, -2.021e-6
-0.612, -2.013e-6
-0.611, -2.003e-6
-0.610, -1.995e-6
-0.609, -1.986e-6
-0.608, -1.980e-6
-0.607, -1.972e-6
-0.606, -1.966e-6
-0.605, -1.958e-6
-0.604, -1.950e-6
-0.603, -1.940e-6
-0.602, -1.932e-6
-0.601, -1.923e-6
-0.600, -1.916e-6
-0.599, -1.909e-6
-0.598, -1.904e-6
-0.597, -1.896e-6
-0.596, -1.889e-6
-0.595, -1.880e-6
-0.594, -1.871e-6
-0.593, -1.862e-6
-0.592, -1.855e-6
-0.591, -1.847e-6
-0.590, -1.841e-6
-0.589, -1.834e-6
-0.588, -1.828e-6
-0.587, -1.819e-6
-0.586, -1.811e-6
-0.585, -1.802e-6
-0.584, -1.794e-6
-0.583, -1.786e-6
-0.582, -1.780e-6
-0.581, -1.773e-6
-0.580, -1.767e-6
-0.579, -1.759e-6
-0.578, -1.752e-6
-0.577, -1.742e-6
-0.576, -1.734e-6
-0.575, -1.726e-6
-0.574, -1.720e-6
-0.573, -1.713e-6
-0.572, -1.708e-6
-0.571, -1.700e-6
-0.570, -1.693e-6
-0.569, -1.684e-6
-0.568, -1.676e-6
-0.567, -1.667e-6
-0.566, -1.661e-6
-0.565, -1.654e-6
-0.564, -1.649e-6
-0.563, -1.642e-6
-0.562, -1.636e-6
-0.561, -1.627e-6
-0.560, -1.619e-6
-0.559, -1.610e-6
-0.558, -1.604e-6
-0.557, -1.596e-6
-0.556, -1.592e-6
-0.555, -1.584e-6
-0.554, -1.579e-6
-0.553, -1.571e-6
-0.552, -1.564e-6
-0.551, -1.555e-6
-0.550, -1.548e-6
-0.549, -1.540e-6
-0.548, -1.535e-6
-0.547, -1.529e-6
-0.546, -1.524e-6
-0.545, -1.516e-6
-0.544, -1.510e-6
-0.543, -1.500e-6
-0.542, -1.493e-6
-0.541, -1.485e-6
-0.540, -1.480e-6
-0.539, -1.473e-6
-0.538, -1.469e-6
-0.537, -1.462e-6
-0.536, -1.456e-6
-0.535, -1.447e-6
-0.534, -1.440e-6
-0.533, -1.432e-6
-0.532, -1.426e-6
-0.531, -1.419e-6
-0.530, -1.415e-6
-0.529, -1.408e-6
-0.528, -1.403e-6
-0.527, -1.395e-6
-0.526, -1.388e-6
-0.525, -1.379e-6
-0.524, -1.374e-6
-0.523, -1.366e-6
-0.522, -1.362e-6
-0.521, -1.356e-6
-0.520, -1.351e-6
-0.519, -1.343e-6
-0.518, -1.337e-6
-0.517, -1.328e-6
-0.516, -1.322e-6
-0.515, -1.315e-6
-0.514, -1.311e-6
-0.513, -1.304e-6
-0.512, -1.301e-6
-0.511, -1.293e-6
-0.510, -1.287e-6
-0.509, -1.279e-6
-0.508, -1.273e-6
-0.507, -1.265e-6
-0.506, -1.260e-6
-0.505, -1.254e-6
-0.504, -1.250e-6
-0.503, -1.243e-6
-0.502, -1.238e-6
-0.501, -1.230e-6
-0.500, -1.224e-6
-0.499, -1.215e-6
-0.498, -1.211e-6
-0.497, -1.204e-6
-0.496, -1.200e-6
-0.495, -1.194e-6
-0.494, -1.189e-6
-0.493, -1.181e-6
-0.492, -1.176e-6
-0.491, -1.167e-6
-0.490, -1.162e-6
-0.489, -1.155e-6
-0.488, -1.152e-6
-0.487, -1.145e-6
-0.486, -1.142e-6
-0.485, -1.134e-6
-0.484, -1.129e-6
-0.483, -1.120e-6
-0.482, -1.115e-6
-0.481, -1.108e-6
-0.480, -1.104e-6
-0.479, -1.098e-6
-0.478, -1.094e-6
-0.477, -1.088e-6
-0.476, -1.083e-6
-0.475, -1.074e-6
-0.474, -1.069e-6
-0.473, -1.061e-6
-0.472, -1.058e-6
-0.471, -1.051e-6
-0.470, -1.048e-6
-0.469, -1.042e-6
-0.468, -1.037e-6
-0.467, -1.029e-6
-0.466, -1.024e-6
-0.465, -1.016e-6
-0.464, -1.012e-6
-0.463, -1.006e-6
-0.462, -1.003e-6
-0.461, -9.964e-7
-0.460, -9.928e-7
-0.459, -9.851e-7
-0.458, -9.800e-7
-0.457, -9.721e-7
-0.456, -9.676e-7
-0.455, -9.609e-7
-0.454, -9.581e-7
-0.453, -9.522e-7
-0.452, -9.490e-7
-0.451, -9.419e-7
-0.450, -9.372e-7
-0.449, -9.289e-7
-0.448, -9.245e-7
-0.447, -9.175e-7
-0.446, -9.142e-7
-0.445, -9.085e-7
-0.444, -9.058e-7
-0.443, -8.990e-7
-0.442, -8.950e-7
-0.441, -8.871e-7
-0.440, -8.824e-7
-0.439, -8.750e-7
-0.438, -8.718e-7
-0.437, -8.657e-7
-0.436, -8.632e-7
-0.435, -8.572e-7
-0.434, -8.536e-7
-0.433, -8.459e-7
-0.432, -8.413e-7
-0.431, -8.337e-7
-0.430, -8.300e-7
-0.429, -8.239e-7
-0.428, -8.218e-7
-0.427, -8.155e-7
-0.426, -8.127e-7
-0.425, -8.055e-7
-0.424, -8.010e-7
-0.423, -7.933e-7
-0.422, -7.895e-7
-0.421, -7.830e-7
-0.420, -7.805e-7
-0.419, -7.750e-7
-0.418, -7.725e-7
-0.417, -7.657e-7
-0.416, -7.617e-7
-0.415, -7.538e-7
-0.414, -7.498e-7
-0.413, -7.431e-7
-0.412, -7.406e-7
-0.411, -7.350e-7
-0.410, -7.329e-7
-0.409, -7.270e-7
-0.408, -7.231e-7
-0.407, -7.156e-7
-0.406, -7.117e-7
-0.405, -7.045e-7
-0.404, -7.018e-7
-0.403, -6.961e-7
-0.402, -6.942e-7
-0.401, -6.882e-7
-0.400, -6.854e-7
-0.399, -6.783e-7
-0.398, -6.740e-7
-0.397, -6.667e-7
-0.396, -6.638e-7
-0.395, -6.575e-7
-0.394, -6.560e-7
-0.393, -6.503e-7
-0.392, -6.479e-7
-0.391, -6.410e-7
-0.390, -6.377e-7
-0.389, -6.301e-7
-0.388, -6.267e-7
-0.387, -6.206e-7
-0.386, -6.186e-7
-0.385, -6.132e-7
-0.384, -6.114e-7
-0.383, -6.051e-7
-0.382, -6.017e-7
-0.381, -5.943e-7
-0.380, -5.910e-7
-0.379, -5.841e-7
-0.378, -5.821e-7
-0.377, -5.768e-7
-0.376, -5.749e-7
-0.375, -5.692e-7
-0.374, -5.665e-7
-0.373, -5.591e-7
-0.372, -5.555e-7
-0.371, -5.487e-7
-0.370, -5.464e-7
-0.369, -5.406e-7
-0.368, -5.395e-7
-0.367, -5.339e-7
-0.366, -5.314e-7
-0.365, -5.246e-7
-0.364, -5.212e-7
-0.363, -5.139e-7
-0.362, -5.115e-7
-0.361, -5.056e-7
-0.360, -5.042e-7
-0.359, -4.990e-7
-0.358, -4.973e-7
-0.357, -4.906e-7
-0.356, -4.875e-7
-0.355, -4.803e-7
-0.354, -4.776e-7
-0.353, -4.713e-7
-0.352, -4.699e-7
-0.351, -4.650e-7
-0.350, -4.633e-7
-0.349, -4.575e-7
-0.348, -4.548e-7
-0.347, -4.473e-7
-0.346, -4.445e-7
-0.345, -4.380e-7
-0.344, -4.364e-7
-0.343, -4.311e-7
-0.342, -4.303e-7
-0.341, -4.245e-7
-0.340, -4.224e-7
-0.339, -4.154e-7
-0.338, -4.123e-7
-0.337, -4.054e-7
-0.336, -4.038e-7
-0.335, -3.983e-7
-0.334, -3.976e-7
-0.333, -3.922e-7
-0.332, -3.907e-7
-0.331, -3.838e-7
-0.330, -3.810e-7
-0.329, -3.742e-7
-0.328, -3.719e-7
-0.327, -3.663e-7
-0.326, -3.655e-7
-0.325, -3.603e-7
-0.324, -3.592e-7
-0.323, -3.530e-7
-0.322, -3.504e-7
-0.321, -3.431e-7
-0.320, -3.408e-7
-0.319, -3.351e-7
-0.318, -3.339e-7
-0.317, -3.292e-7
-0.316, -3.283e-7
-0.315, -3.223e-7
-0.314, -3.203e-7
-0.313, -3.132e-7
-0.312, -3.106e-7
-0.311, -3.044e-7
-0.310, -3.034e-7
-0.309, -2.984e-7
-0.308, -2.977e-7
-0.307, -2.931e-7
-0.306, -2.915e-7
-0.305, -2.845e-7
-0.304, -2.821e-7
-0.303, -2.756e-7
-0.302, -2.740e-7
-0.301, -2.688e-7
-0.300, -2.686e-7
-0.299, -2.633e-7
-0.298, -2.623e-7
-0.297, -2.558e-7
-0.296, -2.533e-7
-0.295, -2.466e-7
-0.294, -2.449e-7
-0.293, -2.392e-7
-0.292, -2.389e-7
-0.291, -2.341e-7
-0.290, -2.334e-7
-0.289, -2.273e-7
-0.288, -2.254e-7
-0.287, -2.184e-7
-0.286, -2.163e-7
-0.285, -2.105e-7
-0.284, -2.100e-7
-0.283, -2.052e-7
-0.282, -2.048e-7
-0.281, -1.995e-7
-0.280, -1.976e-7
-0.279, -1.908e-7
-0.278, -1.889e-7
-0.277, -1.825e-7
-0.276, -1.817e-7
-0.275, -1.768e-7
-0.274, -1.768e-7
-0.273, -1.715e-7
-0.272, -1.705e-7
-0.271, -1.639e-7
-0.270, -1.616e-7
-0.269, -1.552e-7
-0.268, -1.543e-7
-0.267, -1.489e-7
-0.266, -1.492e-7
-0.265, -1.442e-7
-0.264, -1.436e-7
-0.263, -1.373e-7
-0.262, -1.356e-7
-0.261, -1.286e-7
-0.260, -1.272e-7
-0.259, -1.219e-7
-0.258, -1.218e-7
-0.257, -1.170e-7
-0.256, -1.169e-7
-0.255, -1.113e-7
-0.254, -1.096e-7
-0.253, -1.027e-7
-0.252, -1.014e-7
-0.251, -9.526e-8
-0.250, -9.515e-8
-0.249, -9.047e-8
-0.248, -9.049e-8
-0.247, -8.521e-8
-0.246, -8.423e-8
-0.245, -7.741e-8
-0.244, -7.581e-8
-0.243, -6.951e-8
-0.242, -6.915e-8
-0.241, -6.394e-8
-0.240, -6.471e-8
-0.239, -5.956e-8
-0.238, -5.898e-8
-0.237, -5.260e-8
-0.236, -5.099e-8
-0.235, -4.425e-8
-0.234, -4.368e-8
-0.233, -3.856e-8
-0.232, -3.882e-8
-0.231, -3.404e-8
-0.230, -3.430e-8
-0.229, -2.794e-8
-0.228, -2.651e-8
-0.227, -1.985e-8
-0.226, -1.890e-8
-0.225, -1.323e-8
-0.224, -1.364e-8
-0.223, -9.221e-9
-0.222, -9.452e-9
-0.221, -4.000e-9
-0.220, -3.001e-9
-0.219, 4.155e-9
-0.218, 5.099e-9
-0.217, 1.115e-8
-0.216, 1.096e-8
-0.215, 1.560e-8
-0.214, 1.473e-8
-0.213, 2.022e-8
-0.212, 2.072e-8
-0.211, 2.742e-8
-0.210, 2.869e-8
-0.209, 3.524e-8
-0.208, 3.505e-8
-0.207, 4.001e-8
-0.206, 3.911e-8
-0.205, 4.414e-8
-0.204, 4.406e-8
-0.203, 5.080e-8
-0.202, 5.191e-8
-0.201, 5.841e-8
-0.200, 5.899e-8
-0.199, 6.411e-8
-0.198, 6.317e-8
-0.197, 6.818e-8
-0.196, 6.758e-8
-0.195, 7.346e-8
-0.194, 7.434e-8
-0.193, 8.141e-8
-0.192, 8.205e-8
-0.191, 8.771e-8
-0.190, 8.713e-8
-0.189, 9.151e-8
-0.188, 9.067e-8
-0.187, 9.643e-8
-0.186, 9.682e-8
-0.185, 1.038e-7
-0.184, 1.048e-7
-0.183, 1.109e-7
-0.182, 1.102e-7
-0.181, 1.152e-7
-0.180, 1.140e-7
-0.179, 1.191e-7
-0.178, 1.191e-7
-0.177, 1.259e-7
-0.176, 1.268e-7
-0.175, 1.332e-7
-0.174, 1.332e-7
-0.173, 1.383e-7
-0.172, 1.368e-7
-0.171, 1.420e-7
-0.170, 1.413e-7
-0.169, 1.477e-7
-0.168, 1.487e-7
-0.167, 1.554e-7
-0.166, 1.554e-7
-0.165, 1.609e-7
-0.164, 1.599e-7
-0.163, 1.643e-7
-0.162, 1.633e-7
-0.161, 1.694e-7
-0.160, 1.699e-7
-0.159, 1.769e-7
-0.158, 1.773e-7
-0.157, 1.831e-7
-0.156, 1.819e-7
-0.155, 1.868e-7
-0.154, 1.854e-7
-0.153, 1.909e-7
-0.152, 1.910e-7
-0.151, 1.980e-7
-0.150, 1.984e-7
-0.149, 2.049e-7
-0.148, 2.040e-7
-0.147, 2.090e-7
-0.146, 2.072e-7
-0.145, 2.127e-7
-0.144, 2.119e-7
-0.143, 2.186e-7
-0.142, 2.195e-7
-0.141, 2.258e-7
-0.140, 2.254e-7
-0.139, 2.309e-7
-0.138, 2.289e-7
-0.137, 2.338e-7
-0.136, 2.328e-7
-0.135, 2.391e-7
-0.134, 2.395e-7
-0.133, 2.465e-7
-0.132, 2.464e-7
-0.131, 2.517e-7
-0.130, 2.503e-7
-0.129, 2.550e-7
-0.128, 2.535e-7
-0.127, 2.592e-7
-0.126, 2.595e-7
-0.125, 2.665e-7
-0.124, 2.665e-7
-0.123, 2.727e-7
-0.122, 2.713e-7
-0.121, 2.761e-7
-0.120, 2.744e-7
-0.119, 2.797e-7
-0.118, 2.792e-7
-0.117, 2.863e-7
-0.116, 2.866e-7
-0.115, 2.929e-7
-0.114, 2.917e-7
-0.113, 2.968e-7
-0.112, 2.944e-7
-0.111, 2.996e-7
-0.110, 2.989e-7
-0.109, 3.053e-7
-0.108, 3.055e-7
-0.107, 3.124e-7
-0.106, 3.115e-7
-0.105, 3.166e-7
-0.104, 3.148e-7
-0.103, 3.194e-7
-0.102, 3.175e-7
-0.101, 3.240e-7
-0.100, 3.241e-7
-0.099, 3.309e-7
-0.098, 3.305e-7
-0.097, 3.361e-7
-0.096, 3.342e-7
-0.095, 3.387e-7
-0.094, 3.371e-7
-0.093, 3.426e-7
-0.092, 3.421e-7
-0.091, 3.495e-7
-0.090, 3.490e-7
-0.089, 3.551e-7
-0.088, 3.534e-7
-0.087, 3.582e-7
-0.086, 3.556e-7
-0.085, 3.610e-7
-0.084, 3.600e-7
-0.083, 3.668e-7
-0.082, 3.668e-7
-0.081, 3.733e-7
-0.080, 3.716e-7
-0.079, 3.765e-7
-0.078, 3.741e-7
-0.077, 3.788e-7
-0.076, 3.771e-7
-0.075, 3.838e-7
-0.074, 3.834e-7
-0.073, 3.899e-7
-0.072, 3.889e-7
-0.071, 3.940e-7
-0.070, 3.915e-7
-0.069, 3.960e-7
-0.068, 3.937e-7
-0.067, 3.995e-7
-0.066, 3.989e-7
-0.065, 4.058e-7
-0.064, 4.047e-7
-0.063, 4.102e-7
-0.062, 4.078e-7
-0.061, 4.118e-7
-0.060, 4.090e-7
-0.059, 4.146e-7
-0.058, 4.131e-7
-0.057, 4.197e-7
-0.056, 4.189e-7
-0.055, 4.247e-7
-0.054, 4.220e-7
-0.053, 4.267e-7
-0.052, 4.237e-7
-0.051, 4.282e-7
-0.050, 4.264e-7
-0.049, 4.329e-7
-0.048, 4.320e-7
-0.047, 4.380e-7
-0.046, 4.362e-7
-0.045, 4.407e-7
-0.044, 4.373e-7
-0.043, 4.423e-7
-0.042, 4.396e-7
-0.041, 4.456e-7
-0.040, 4.449e-7
-0.039, 4.514e-7
-0.038, 4.498e-7
-0.037, 4.549e-7
-0.036, 4.519e-7
-0.035, 4.563e-7
-0.034, 4.536e-7
-0.033, 4.595e-7
-0.032, 4.583e-7
-0.031, 4.654e-7
-0.030, 4.644e-7
-0.029, 4.699e-7
-0.028, 4.670e-7
-0.027, 4.719e-7
-0.026, 4.687e-7
-0.025, 4.740e-7
-0.024, 4.730e-7
-0.023, 4.799e-7
-0.022, 4.788e-7
-0.021, 4.853e-7
-0.020, 4.829e-7
-0.019, 4.877e-7
-0.018, 4.846e-7
-0.017, 4.899e-7
-0.016, 4.879e-7
-0.015, 4.948e-7
-0.014, 4.944e-7
-0.013, 5.008e-7
-0.012, 4.988e-7
-0.011, 5.041e-7
-0.010, 5.007e-7
-0.009, 5.056e-7
-0.008, 5.035e-7
-0.007, 5.100e-7
-0.006, 5.091e-7
-0.005, 5.162e-7
-0.004, 5.147e-7
-0.003, 5.201e-7
-0.002, 5.171e-7
-0.001, 5.220e-7