File: data/raw_data/electrochemistry/20170904_Gr-NH2_prod_for_Radisurf/Run Unsaved.txt
Sept. 4, 2017   10:20:19
Cyclic Voltammetry
File: run unsaved
Data Source:  Experiment
Instrument Model:  CHI601D
Header:
Note:

Init E (V) = 0.5
High E (V) = 0.5
Low E (V) = -1
Init P/N = N
Scan Rate (V/s) = 0.1
Segment = 2
Sample Interval (V) = 0.001
Quiet Time (sec) = 2
Sensitivity (A/V) = 1e-6

Potential/V, Current/A

Segment 1:
0.500, 9.567e-7
0.499, 9.445e-7
0.498, 9.369e-7
0.497, 9.293e-7
0.496, 9.239e-7
0.495, 9.174e-7
0.494, 9.123e-7
0.493, 9.063e-7
0.492, 9.017e-7
0.491, 8.957e-7
0.490, 8.914e-7
0.489, 8.859e-7
0.488, 8.814e-7
0.487, 8.761e-7
0.486, 8.721e-7
0.485, 8.666e-7
0.484, 8.627e-7
0.483, 8.576e-7
0.482, 8.537e-7
0.481, 8.486e-7
0.480, 8.449e-7
0.479, 8.399e-7
0.478, 8.361e-7
0.477, 8.314e-7
0.476, 8.279e-7
0.475, 8.228e-7
0.474, 8.193e-7
0.473, 8.147e-7
0.472, 8.111e-7
0.471, 8.064e-7
0.470, 8.031e-7
0.469, 7.984e-7
0.468, 7.952e-7
0.467, 7.907e-7
0.466, 7.873e-7
0.465, 7.828e-7
0.464, 7.797e-7
0.463, 7.753e-7
0.462, 7.720e-7
0.461, 7.677e-7
0.460, 7.647e-7
0.459, 7.602e-7
0.458, 7.573e-7
0.457, 7.529e-7
0.456, 7.499e-7
0.455, 7.456e-7
0.454, 7.427e-7
0.453, 7.384e-7
0.452, 7.354e-7
0.451, 7.314e-7
0.450, 7.284e-7
0.449, 7.242e-7
0.448, 7.214e-7
0.447, 7.174e-7
0.446, 7.145e-7
0.445, 7.106e-7
0.444, 7.079e-7
0.443, 7.036e-7
0.442, 7.011e-7
0.441, 6.971e-7
0.440, 6.943e-7
0.439, 6.905e-7
0.438, 6.879e-7
0.437, 6.838e-7
0.436, 6.812e-7
0.435, 6.774e-7
0.434, 6.748e-7
0.433, 6.709e-7
0.432, 6.684e-7
0.431, 6.647e-7
0.430, 6.620e-7
0.429, 6.583e-7
0.428, 6.558e-7
0.427, 6.519e-7
0.426, 6.495e-7
0.425, 6.459e-7
0.424, 6.432e-7
0.423, 6.395e-7
0.422, 6.371e-7
0.421, 6.334e-7
0.420, 6.310e-7
0.419, 6.274e-7
0.418, 6.251e-7
0.417, 6.213e-7
0.416, 6.191e-7
0.415, 6.155e-7
0.414, 6.130e-7
0.413, 6.095e-7
0.412, 6.073e-7
0.411, 6.036e-7
0.410, 6.014e-7
0.409, 5.980e-7
0.408, 5.955e-7
0.407, 5.920e-7
0.406, 5.899e-7
0.405, 5.863e-7
0.404, 5.840e-7
0.403, 5.806e-7
0.402, 5.783e-7
0.401, 5.748e-7
0.400, 5.727e-7
0.399, 5.693e-7
0.398, 5.669e-7
0.397, 5.636e-7
0.396, 5.615e-7
0.395, 5.579e-7
0.394, 5.559e-7
0.393, 5.526e-7
0.392, 5.503e-7
0.391, 5.470e-7
0.390, 5.449e-7
0.389, 5.415e-7
0.388, 5.395e-7
0.387, 5.362e-7
0.386, 5.341e-7
0.385, 5.307e-7
0.384, 5.287e-7
0.383, 5.254e-7
0.382, 5.232e-7
0.381, 5.201e-7
0.380, 5.181e-7
0.379, 5.146e-7
0.378, 5.126e-7
0.377, 5.094e-7
0.376, 5.072e-7
0.375, 5.041e-7
0.374, 5.023e-7
0.373, 4.989e-7
0.372, 4.970e-7
0.371, 4.937e-7
0.370, 4.918e-7
0.369, 4.885e-7
0.368, 4.866e-7
0.367, 4.835e-7
0.366, 4.814e-7
0.365, 4.782e-7
0.364, 4.764e-7
0.363, 4.730e-7
0.362, 4.712e-7
0.361, 4.682e-7
0.360, 4.661e-7
0.359, 4.630e-7
0.358, 4.612e-7
0.357, 4.579e-7
0.356, 4.561e-7
0.355, 4.531e-7
0.354, 4.511e-7
0.353, 4.479e-7
0.352, 4.461e-7
0.351, 4.431e-7
0.350, 4.411e-7
0.349, 4.380e-7
0.348, 4.363e-7
0.347, 4.330e-7
0.346, 4.313e-7
0.345, 4.282e-7
0.344, 4.262e-7
0.343, 4.233e-7
0.342, 4.217e-7
0.341, 4.184e-7
0.340, 4.167e-7
0.339, 4.137e-7
0.338, 4.119e-7
0.337, 4.088e-7
0.336, 4.073e-7
0.335, 4.041e-7
0.334, 4.022e-7
0.333, 3.992e-7
0.332, 3.976e-7
0.331, 3.944e-7
0.330, 3.928e-7
0.329, 3.898e-7
0.328, 3.879e-7
0.327, 3.849e-7
0.326, 3.833e-7
0.325, 3.801e-7
0.324, 3.785e-7
0.323, 3.756e-7
0.322, 3.737e-7
0.321, 3.706e-7
0.320, 3.689e-7
0.319, 3.660e-7
0.318, 3.641e-7
0.317, 3.613e-7
0.316, 3.597e-7
0.315, 3.565e-7
0.314, 3.549e-7
0.313, 3.520e-7
0.312, 3.500e-7
0.311, 3.472e-7
0.310, 3.457e-7
0.309, 3.425e-7
0.308, 3.409e-7
0.307, 3.383e-7
0.306, 3.365e-7
0.305, 3.334e-7
0.304, 3.318e-7
0.303, 3.290e-7
0.302, 3.270e-7
0.301, 3.242e-7
0.300, 3.226e-7
0.299, 3.195e-7
0.298, 3.180e-7
0.297, 3.151e-7
0.296, 3.133e-7
0.295, 3.104e-7
0.294, 3.087e-7
0.293, 3.058e-7
0.292, 3.042e-7
0.291, 3.013e-7
0.290, 2.996e-7
0.289, 2.967e-7
0.288, 2.950e-7
0.287, 2.922e-7
0.286, 2.904e-7
0.285, 2.877e-7
0.284, 2.861e-7
0.283, 2.830e-7
0.282, 2.814e-7
0.281, 2.786e-7
0.280, 2.768e-7
0.279, 2.740e-7
0.278, 2.725e-7
0.277, 2.695e-7
0.276, 2.678e-7
0.275, 2.650e-7
0.274, 2.634e-7
0.273, 2.604e-7
0.272, 2.589e-7
0.271, 2.561e-7
0.270, 2.543e-7
0.269, 2.515e-7
0.268, 2.499e-7
0.267, 2.468e-7
0.266, 2.454e-7
0.265, 2.426e-7
0.264, 2.408e-7
0.263, 2.382e-7
0.262, 2.365e-7
0.261, 2.337e-7
0.260, 2.320e-7
0.259, 2.293e-7
0.258, 2.277e-7
0.257, 2.247e-7
0.256, 2.232e-7
0.255, 2.204e-7
0.254, 2.186e-7
0.253, 2.160e-7
0.252, 2.144e-7
0.251, 2.113e-7
0.250, 2.099e-7
0.249, 2.071e-7
0.248, 2.053e-7
0.247, 2.026e-7
0.246, 2.010e-7
0.245, 1.981e-7
0.244, 1.964e-7
0.243, 1.936e-7
0.242, 1.920e-7
0.241, 1.891e-7
0.240, 1.876e-7
0.239, 1.849e-7
0.238, 1.831e-7
0.237, 1.804e-7
0.236, 1.788e-7
0.235, 1.758e-7
0.234, 1.743e-7
0.233, 1.715e-7
0.232, 1.697e-7
0.231, 1.670e-7
0.230, 1.655e-7
0.229, 1.625e-7
0.228, 1.609e-7
0.227, 1.582e-7
0.226, 1.565e-7
0.225, 1.536e-7
0.224, 1.520e-7
0.223, 1.492e-7
0.222, 1.474e-7
0.221, 1.447e-7
0.220, 1.431e-7
0.219, 1.401e-7
0.218, 1.385e-7
0.217, 1.357e-7
0.216, 1.339e-7
0.215, 1.312e-7
0.214, 1.297e-7
0.213, 1.266e-7
0.212, 1.249e-7
0.211, 1.222e-7
0.210, 1.205e-7
0.209, 1.176e-7
0.208, 1.160e-7
0.207, 1.132e-7
0.206, 1.113e-7
0.205, 1.085e-7
0.204, 1.069e-7
0.203, 1.039e-7
0.202, 1.024e-7
0.201, 9.958e-8
0.200, 9.774e-8
0.199, 9.485e-8
0.198, 9.327e-8
0.197, 9.022e-8
0.196, 8.856e-8
0.195, 8.572e-8
0.194, 8.407e-8
0.193, 8.106e-8
0.192, 7.938e-8
0.191, 7.659e-8
0.190, 7.470e-8
0.189, 7.192e-8
0.188, 7.033e-8
0.187, 6.719e-8
0.186, 6.562e-8
0.185, 6.276e-8
0.184, 6.088e-8
0.183, 5.794e-8
0.182, 5.635e-8
0.181, 5.332e-8
0.180, 5.156e-8
0.179, 4.872e-8
0.178, 4.692e-8
0.177, 4.387e-8
0.176, 4.228e-8
0.175, 3.933e-8
0.174, 3.740e-8
0.173, 3.456e-8
0.172, 3.286e-8
0.171, 2.967e-8
0.170, 2.810e-8
0.169, 2.519e-8
0.168, 2.318e-8
0.167, 2.033e-8
0.166, 1.860e-8
0.165, 1.542e-8
0.164, 1.367e-8
0.163, 1.080e-8
0.162, 8.866e-9
0.161, 5.757e-9
0.160, 4.099e-9
0.159, 1.155e-9
0.158, -9.008e-10
0.157, -3.741e-9
0.156, -5.521e-9
0.155, -8.741e-9
0.154, -1.049e-8
0.153, -1.355e-8
0.152, -1.550e-8
0.151, -1.853e-8
0.150, -2.030e-8
0.149, -2.340e-8
0.148, -2.524e-8
0.147, -2.831e-8
0.146, -3.027e-8
0.145, -3.343e-8
0.144, -3.521e-8
0.143, -3.823e-8
0.142, -4.035e-8
0.141, -4.334e-8
0.140, -4.525e-8
0.139, -4.855e-8
0.138, -5.034e-8
0.137, -5.343e-8
0.136, -5.560e-8
0.135, -5.862e-8
0.134, -6.049e-8
0.133, -6.381e-8
0.132, -6.574e-8
0.131, -6.874e-8
0.130, -7.078e-8
0.129, -7.406e-8
0.128, -7.593e-8
0.127, -7.905e-8
0.126, -8.126e-8
0.125, -8.426e-8
0.124, -8.627e-8
0.123, -8.966e-8
0.122, -9.156e-8
0.121, -9.479e-8
0.120, -9.704e-8
0.119, -1.000e-7
0.118, -1.020e-7
0.117, -1.054e-7
0.116, -1.075e-7
0.115, -1.108e-7
0.114, -1.129e-7
0.113, -1.162e-7
0.112, -1.182e-7
0.111, -1.214e-7
0.110, -1.237e-7
0.109, -1.269e-7
0.108, -1.290e-7
0.107, -1.326e-7
0.106, -1.345e-7
0.105, -1.378e-7
0.104, -1.401e-7
0.103, -1.433e-7
0.102, -1.452e-7
0.101, -1.487e-7
0.100, -1.510e-7
0.099, -1.542e-7
0.098, -1.565e-7
0.097, -1.600e-7
0.096, -1.622e-7
0.095, -1.655e-7
0.094, -1.679e-7
0.093, -1.712e-7
0.092, -1.734e-7
0.091, -1.770e-7
0.090, -1.792e-7
0.089, -1.826e-7
0.088, -1.851e-7
0.087, -1.884e-7
0.086, -1.907e-7
0.085, -1.943e-7
0.084, -1.967e-7
0.083, -2.001e-7
0.082, -2.025e-7
0.081, -2.060e-7
0.080, -2.083e-7
0.079, -2.117e-7
0.078, -2.143e-7
0.077, -2.178e-7
0.076, -2.201e-7
0.075, -2.239e-7
0.074, -2.262e-7
0.073, -2.297e-7
0.072, -2.323e-7
0.071, -2.358e-7
0.070, -2.382e-7
0.069, -2.418e-7
0.068, -2.444e-7
0.067, -2.479e-7
0.066, -2.504e-7
0.065, -2.541e-7
0.064, -2.566e-7
0.063, -2.601e-7
0.062, -2.629e-7
0.061, -2.664e-7
0.060, -2.688e-7
0.059, -2.728e-7
0.058, -2.753e-7
0.057, -2.789e-7
0.056, -2.817e-7
0.055, -2.854e-7
0.054, -2.879e-7
0.053, -2.917e-7
0.052, -2.945e-7
0.051, -2.981e-7
0.050, -3.007e-7
0.049, -3.047e-7
0.048, -3.071e-7
0.047, -3.109e-7
0.046, -3.138e-7
0.045, -3.174e-7
0.044, -3.201e-7
0.043, -3.241e-7
0.042, -3.268e-7
0.041, -3.305e-7
0.040, -3.335e-7
0.039, -3.372e-7
0.038, -3.400e-7
0.037, -3.440e-7
0.036, -3.468e-7
0.035, -3.506e-7
0.034, -3.535e-7
0.033, -3.575e-7
0.032, -3.603e-7
0.031, -3.642e-7
0.030, -3.672e-7
0.029, -3.709e-7
0.028, -3.738e-7
0.027, -3.780e-7
0.026, -3.808e-7
0.025, -3.847e-7
0.024, -3.877e-7
0.023, -3.916e-7
0.022, -3.945e-7
0.021, -3.987e-7
0.020, -4.017e-7
0.019, -4.057e-7
0.018, -4.088e-7
0.017, -4.128e-7
0.016, -4.157e-7
0.015, -4.198e-7
0.014, -4.230e-7
0.013, -4.271e-7
0.012, -4.300e-7
0.011, -4.345e-7
0.010, -4.373e-7
0.009, -4.413e-7
0.008, -4.447e-7
0.007, -4.487e-7
0.006, -4.519e-7
0.005, -4.561e-7
0.004, -4.593e-7
0.003, -4.633e-7
0.002, -4.666e-7
0.001, -4.709e-7
0.000, -4.738e-7
-0.001, -4.780e-7
-0.002, -4.814e-7
-0.003, -4.856e-7
-0.004, -4.888e-7
-0.005, -4.932e-7
-0.006, -4.964e-7
-0.007, -5.007e-7
-0.008, -5.041e-7
-0.009, -5.085e-7
-0.010, -5.116e-7
-0.011, -5.161e-7
-0.012, -5.194e-7
-0.013, -5.237e-7
-0.014, -5.271e-7
-0.015, -5.317e-7
-0.016, -5.349e-7
-0.017, -5.392e-7
-0.018, -5.428e-7
-0.019, -5.471e-7
-0.020, -5.504e-7
-0.021, -5.550e-7
-0.022, -5.584e-7
-0.023, -5.627e-7
-0.024, -5.663e-7
-0.025, -5.708e-7
-0.026, -5.742e-7
-0.027, -5.789e-7
-0.028, -5.824e-7
-0.029, -5.867e-7
-0.030, -5.903e-7
-0.031, -5.950e-7
-0.032, -5.985e-7
-0.033, -6.030e-7
-0.034, -6.068e-7
-0.035, -6.113e-7
-0.036, -6.148e-7
-0.037, -6.197e-7
-0.038, -6.232e-7
-0.039, -6.278e-7
-0.040, -6.316e-7
-0.041, -6.362e-7
-0.042, -6.397e-7
-0.043, -6.445e-7
-0.044, -6.482e-7
-0.045, -6.529e-7
-0.046, -6.566e-7
-0.047, -6.614e-7
-0.048, -6.651e-7
-0.049, -6.698e-7
-0.050, -6.738e-7
-0.051, -6.785e-7
-0.052, -6.823e-7
-0.053, -6.872e-7
-0.054, -6.909e-7
-0.055, -6.956e-7
-0.056, -6.996e-7
-0.057, -7.044e-7
-0.058, -7.082e-7
-0.059, -7.132e-7
-0.060, -7.171e-7
-0.061, -7.220e-7
-0.062, -7.259e-7
-0.063, -7.308e-7
-0.064, -7.347e-7
-0.065, -7.396e-7
-0.066, -7.437e-7
-0.067, -7.485e-7
-0.068, -7.524e-7
-0.069, -7.576e-7
-0.070, -7.615e-7
-0.071, -7.664e-7
-0.072, -7.707e-7
-0.073, -7.756e-7
-0.074, -7.796e-7
-0.075, -7.847e-7
-0.076, -7.888e-7
-0.077, -7.937e-7
-0.078, -7.979e-7
-0.079, -8.031e-7
-0.080, -8.070e-7
-0.081, -8.122e-7
-0.082, -8.165e-7
-0.083, -8.216e-7
-0.084, -8.257e-7
-0.085, -8.310e-7
-0.086, -8.351e-7
-0.087, -8.401e-7
-0.088, -8.445e-7
-0.089, -8.497e-7
-0.090, -8.540e-7
-0.091, -8.592e-7
-0.092, -8.635e-7
-0.093, -8.686e-7
-0.094, -8.729e-7
-0.095, -8.783e-7
-0.096, -8.826e-7
-0.097, -8.878e-7
-0.098, -8.923e-7
-0.099, -8.975e-7
-0.100, -9.018e-7
-0.101, -9.074e-7
-0.102, -9.116e-7
-0.103, -9.167e-7
-0.104, -9.212e-7
-0.105, -9.266e-7
-0.106, -9.309e-7
-0.107, -9.364e-7
-0.108, -9.410e-7
-0.109, -9.463e-7
-0.110, -9.507e-7
-0.111, -9.563e-7
-0.112, -9.607e-7
-0.113, -9.661e-7
-0.114, -9.709e-7
-0.115, -9.764e-7
-0.116, -9.809e-7
-0.117, -9.867e-7
-0.118, -9.911e-7
-0.119, -9.964e-7
-0.120, -1.001e-6
-0.121, -1.007e-6
-0.122, -1.011e-6
-0.123, -1.017e-6
-0.124, -1.022e-6
-0.125, -1.027e-6
-0.126, -1.032e-6
-0.127, -1.038e-6
-0.128, -1.042e-6
-0.129, -1.048e-6
-0.130, -1.053e-6
-0.131, -1.058e-6
-0.132, -1.063e-6
-0.133, -1.069e-6
-0.134, -1.073e-6
-0.135, -1.079e-6
-0.136, -1.084e-6
-0.137, -1.090e-6
-0.138, -1.094e-6
-0.139, -1.100e-6
-0.140, -1.105e-6
-0.141, -1.111e-6
-0.142, -1.116e-6
-0.143, -1.122e-6
-0.144, -1.126e-6
-0.145, -1.132e-6
-0.146, -1.137e-6
-0.147, -1.143e-6
-0.148, -1.148e-6
-0.149, -1.154e-6
-0.150, -1.159e-6
-0.151, -1.165e-6
-0.152, -1.170e-6
-0.153, -1.176e-6
-0.154, -1.181e-6
-0.155, -1.187e-6
-0.156, -1.192e-6
-0.157, -1.198e-6
-0.158, -1.203e-6
-0.159, -1.209e-6
-0.160, -1.214e-6
-0.161, -1.220e-6
-0.162, -1.225e-6
-0.163, -1.231e-6
-0.164, -1.236e-6
-0.165, -1.242e-6
-0.166, -1.247e-6
-0.167, -1.253e-6
-0.168, -1.259e-6
-0.169, -1.265e-6
-0.170, -1.270e-6
-0.171, -1.276e-6
-0.172, -1.281e-6
-0.173, -1.287e-6
-0.174, -1.292e-6
-0.175, -1.299e-6
-0.176, -1.304e-6
-0.177, -1.310e-6
-0.178, -1.315e-6
-0.179, -1.321e-6
-0.180, -1.327e-6
-0.181, -1.333e-6
-0.182, -1.338e-6
-0.183, -1.344e-6
-0.184, -1.350e-6
-0.185, -1.356e-6
-0.186, -1.361e-6
-0.187, -1.368e-6
-0.188, -1.373e-6
-0.189, -1.379e-6
-0.190, -1.385e-6
-0.191, -1.391e-6
-0.192, -1.397e-6
-0.193, -1.403e-6
-0.194, -1.408e-6
-0.195, -1.415e-6
-0.196, -1.420e-6
-0.197, -1.427e-6
-0.198, -1.432e-6
-0.199, -1.438e-6
-0.200, -1.444e-6
-0.201, -1.450e-6
-0.202, -1.456e-6
-0.203, -1.463e-6
-0.204, -1.468e-6
-0.205, -1.475e-6
-0.206, -1.480e-6
-0.207, -1.487e-6
-0.208, -1.492e-6
-0.209, -1.499e-6
-0.210, -1.504e-6
-0.211, -1.511e-6
-0.212, -1.516e-6
-0.213, -1.523e-6
-0.214, -1.529e-6
-0.215, -1.535e-6
-0.216, -1.541e-6
-0.217, -1.548e-6
-0.218, -1.553e-6
-0.219, -1.560e-6
-0.220, -1.566e-6
-0.221, -1.572e-6
-0.222, -1.578e-6
-0.223, -1.585e-6
-0.224, -1.591e-6
-0.225, -1.597e-6
-0.226, -1.603e-6
-0.227, -1.610e-6
-0.228, -1.615e-6
-0.229, -1.622e-6
-0.230, -1.628e-6
-0.231, -1.635e-6
-0.232, -1.641e-6
-0.233, -1.647e-6
-0.234, -1.653e-6
-0.235, -1.660e-6
-0.236, -1.666e-6
-0.237, -1.673e-6
-0.238, -1.679e-6
-0.239, -1.686e-6
-0.240, -1.691e-6
-0.241, -1.698e-6
-0.242, -1.705e-6
-0.243, -1.711e-6
-0.244, -1.717e-6
-0.245, -1.724e-6
-0.246, -1.730e-6
-0.247, -1.737e-6
-0.248, -1.743e-6
-0.249, -1.750e-6
-0.250, -1.756e-6
-0.251, -1.763e-6
-0.252, -1.769e-6
-0.253, -1.776e-6
-0.254, -1.782e-6
-0.255, -1.789e-6
-0.256, -1.795e-6
-0.257, -1.802e-6
-0.258, -1.809e-6
-0.259, -1.815e-6
-0.260, -1.821e-6
-0.261, -1.829e-6
-0.262, -1.835e-6
-0.263, -1.842e-6
-0.264, -1.848e-6
-0.265, -1.855e-6
-0.266, -1.861e-6
-0.267, -1.868e-6
-0.268, -1.875e-6
-0.269, -1.882e-6
-0.270, -1.888e-6
-0.271, -1.895e-6
-0.272, -1.902e-6
-0.273, -1.909e-6
-0.274, -1.915e-6
-0.275, -1.922e-6
-0.276, -1.928e-6
-0.277, -1.936e-6
-0.278, -1.942e-6
-0.279, -1.949e-6
-0.280, -1.956e-6
-0.281, -1.963e-6
-0.282, -1.969e-6
-0.283, -1.976e-6
-0.284, -1.983e-6
-0.285, -1.990e-6
-0.286, -1.996e-6
-0.287, -2.004e-6
-0.288, -2.010e-6
-0.289, -2.017e-6
-0.290, -2.024e-6
-0.291, -2.031e-6
-0.292, -2.037e-6
-0.293, -2.045e-6
-0.294, -2.051e-6
-0.295, -2.059e-6
-0.296, -2.066e-6
-0.297, -2.073e-6
-0.298, -2.079e-6
-0.299, -2.087e-6
-0.300, -2.093e-6
-0.301, -2.101e-6
-0.302, -2.107e-6
-0.303, -2.115e-6
-0.304, -2.121e-6
-0.305, -2.129e-6
-0.306, -2.135e-6
-0.307, -2.143e-6
-0.308, -2.149e-6
-0.309, -2.157e-6
-0.310, -2.163e-6
-0.311, -2.171e-6
-0.312, -2.177e-6
-0.313, -2.185e-6
-0.314, -2.192e-6
-0.315, -2.199e-6
-0.316, -2.206e-6
-0.317, -2.213e-6
-0.318, -2.220e-6
-0.319, -2.228e-6
-0.320, -2.235e-6
-0.321, -2.242e-6
-0.322, -2.249e-6
-0.323, -2.257e-6
-0.324, -2.263e-6
-0.325, -2.271e-6
-0.326, -2.278e-6
-0.327, -2.285e-6
-0.328, -2.292e-6
-0.329, -2.300e-6
-0.330, -2.307e-6
-0.331, -2.314e-6
-0.332, -2.321e-6
-0.333, -2.329e-6
-0.334, -2.336e-6
-0.335, -2.344e-6
-0.336, -2.350e-6
-0.337, -2.358e-6
-0.338, -2.365e-6
-0.339, -2.373e-6
-0.340, -2.380e-6
-0.341, -2.388e-6
-0.342, -2.395e-6
-0.343, -2.402e-6
-0.344, -2.409e-6
-0.345, -2.417e-6
-0.346, -2.424e-6
-0.347, -2.432e-6
-0.348, -2.439e-6
-0.349, -2.447e-6
-0.350, -2.454e-6
-0.351, -2.462e-6
-0.352, -2.469e-6
-0.353, -2.476e-6
-0.354, -2.484e-6
-0.355, -2.491e-6
-0.356, -2.498e-6
-0.357, -2.507e-6
-0.358, -2.514e-6
-0.359, -2.521e-6
-0.360, -2.529e-6
-0.361, -2.537e-6
-0.362, -2.544e-6
-0.363, -2.551e-6
-0.364, -2.559e-6
-0.365, -2.566e-6
-0.366, -2.574e-6
-0.367, -2.582e-6
-0.368, -2.589e-6
-0.369, -2.597e-6
-0.370, -2.604e-6
-0.371, -2.612e-6
-0.372, -2.619e-6
-0.373, -2.627e-6
-0.374, -2.635e-6
-0.375, -2.642e-6
-0.376, -2.650e-6
-0.377, -2.658e-6
-0.378, -2.665e-6
-0.379, -2.673e-6
-0.380, -2.681e-6
-0.381, -2.689e-6
-0.382, -2.696e-6
-0.383, -2.704e-6
-0.384, -2.711e-6
-0.385, -2.719e-6
-0.386, -2.727e-6
-0.387, -2.735e-6
-0.388, -2.742e-6
-0.389, -2.750e-6
-0.390, -2.758e-6
-0.391, -2.766e-6
-0.392, -2.773e-6
-0.393, -2.781e-6
-0.394, -2.789e-6
-0.395, -2.797e-6
-0.396, -2.804e-6
-0.397, -2.813e-6
-0.398, -2.820e-6
-0.399, -2.828e-6
-0.400, -2.836e-6
-0.401, -2.844e-6
-0.402, -2.852e-6
-0.403, -2.860e-6
-0.404, -2.867e-6
-0.405, -2.876e-6
-0.406, -2.883e-6
-0.407, -2.891e-6
-0.408, -2.899e-6
-0.409, -2.907e-6
-0.410, -2.914e-6
-0.411, -2.923e-6
-0.412, -2.930e-6
-0.413, -2.939e-6
-0.414, -2.946e-6
-0.415, -2.955e-6
-0.416, -2.962e-6
-0.417, -2.970e-6
-0.418, -2.978e-6
-0.419, -2.986e-6
-0.420, -2.994e-6
-0.421, -3.003e-6
-0.422, -3.010e-6
-0.423, -3.018e-6
-0.424, -3.026e-6
-0.425, -3.035e-6
-0.426, -3.042e-6
-0.427, -3.051e-6
-0.428, -3.058e-6
-0.429, -3.067e-6
-0.430, -3.074e-6
-0.431, -3.083e-6
-0.432, -3.091e-6
-0.433, -3.099e-6
-0.434, -3.107e-6
-0.435, -3.115e-6
-0.436, -3.123e-6
-0.437, -3.131e-6
-0.438, -3.139e-6
-0.439, -3.147e-6
-0.440, -3.155e-6
-0.441, -3.164e-6
-0.442, -3.172e-6
-0.443, -3.180e-6
-0.444, -3.188e-6
-0.445, -3.197e-6
-0.446, -3.204e-6
-0.447, -3.213e-6
-0.448, -3.221e-6
-0.449, -3.229e-6
-0.450, -3.237e-6
-0.451, -3.246e-6
-0.452, -3.253e-6
-0.453, -3.262e-6
-0.454, -3.270e-6
-0.455, -3.279e-6
-0.456, -3.286e-6
-0.457, -3.295e-6
-0.458, -3.303e-6
-0.459, -3.312e-6
-0.460, -3.320e-6
-0.461, -3.328e-6
-0.462, -3.336e-6
-0.463, -3.345e-6
-0.464, -3.352e-6
-0.465, -3.361e-6
-0.466, -3.369e-6
-0.467, -3.378e-6
-0.468, -3.386e-6
-0.469, -3.395e-6
-0.470, -3.402e-6
-0.471, -3.411e-6
-0.472, -3.419e-6
-0.473, -3.428e-6
-0.474, -3.436e-6
-0.475, -3.444e-6
-0.476, -3.452e-6
-0.477, -3.461e-6
-0.478, -3.469e-6
-0.479, -3.478e-6
-0.480, -3.486e-6
-0.481, -3.495e-6
-0.482, -3.503e-6
-0.483, -3.512e-6
-0.484, -3.520e-6
-0.485, -3.528e-6
-0.486, -3.536e-6
-0.487, -3.545e-6
-0.488, -3.553e-6
-0.489, -3.562e-6
-0.490, -3.570e-6
-0.491, -3.579e-6
-0.492, -3.587e-6
-0.493, -3.596e-6
-0.494, -3.604e-6
-0.495, -3.613e-6
-0.496, -3.621e-6
-0.497, -3.630e-6
-0.498, -3.639e-6
-0.499, -3.647e-6
-0.500, -3.656e-6
-0.501, -3.664e-6
-0.502, -3.673e-6
-0.503, -3.682e-6
-0.504, -3.690e-6
-0.505, -3.699e-6
-0.506, -3.707e-6
-0.507, -3.716e-6
-0.508, -3.724e-6
-0.509, -3.733e-6
-0.510, -3.741e-6
-0.511, -3.751e-6
-0.512, -3.759e-6
-0.513, -3.767e-6
-0.514, -3.776e-6
-0.515, -3.785e-6
-0.516, -3.793e-6
-0.517, -3.802e-6
-0.518, -3.811e-6
-0.519, -3.820e-6
-0.520, -3.828e-6
-0.521, -3.837e-6
-0.522, -3.846e-6
-0.523, -3.855e-6
-0.524, -3.864e-6
-0.525, -3.873e-6
-0.526, -3.881e-6
-0.527, -3.891e-6
-0.528, -3.899e-6
-0.529, -3.908e-6
-0.530, -3.917e-6
-0.531, -3.926e-6
-0.532, -3.935e-6
-0.533, -3.945e-6
-0.534, -3.953e-6
-0.535, -3.962e-6
-0.536, -3.972e-6
-0.537, -3.981e-6
-0.538, -3.990e-6
-0.539, -3.999e-6
-0.540, -4.009e-6
-0.541, -4.018e-6
-0.542, -4.027e-6
-0.543, -4.037e-6
-0.544, -4.046e-6
-0.545, -4.055e-6
-0.546, -4.065e-6
-0.547, -4.074e-6
-0.548, -4.084e-6
-0.549, -4.094e-6
-0.550, -4.103e-6
-0.551, -4.113e-6
-0.552, -4.123e-6
-0.553, -4.133e-6
-0.554, -4.142e-6
-0.555, -4.152e-6
-0.556, -4.162e-6
-0.557, -4.172e-6
-0.558, -4.182e-6
-0.559, -4.192e-6
-0.560, -4.202e-6
-0.561, -4.212e-6
-0.562, -4.223e-6
-0.563, -4.233e-6
-0.564, -4.243e-6
-0.565, -4.254e-6
-0.566, -4.263e-6
-0.567, -4.274e-6
-0.568, -4.285e-6
-0.569, -4.295e-6
-0.570, -4.305e-6
-0.571, -4.316e-6
-0.572, -4.326e-6
-0.573, -4.337e-6
-0.574, -4.347e-6
-0.575, -4.358e-6
-0.576, -4.368e-6
-0.577, -4.379e-6
-0.578, -4.390e-6
-0.579, -4.400e-6
-0.580, -4.411e-6
-0.581, -4.422e-6
-0.582, -4.432e-6
-0.583, -4.443e-6
-0.584, -4.453e-6
-0.585, -4.464e-6
-0.586, -4.475e-6
-0.587, -4.485e-6
-0.588, -4.496e-6
-0.589, -4.507e-6
-0.590, -4.517e-6
-0.591, -4.528e-6
-0.592, -4.538e-6
-0.593, -4.549e-6
-0.594, -4.560e-6
-0.595, -4.570e-6
-0.596, -4.581e-6
-0.597, -4.592e-6
-0.598, -4.602e-6
-0.599, -4.612e-6
-0.600, -4.623e-6
-0.601, -4.634e-6
-0.602, -4.644e-6
-0.603, -4.654e-6
-0.604, -4.665e-6
-0.605, -4.675e-6
-0.606, -4.685e-6
-0.607, -4.696e-6
-0.608, -4.706e-6
-0.609, -4.717e-6
-0.610, -4.727e-6
-0.611, -4.737e-6
-0.612, -4.747e-6
-0.613, -4.758e-6
-0.614, -4.768e-6
-0.615, -4.778e-6
-0.616, -4.788e-6
-0.617, -4.798e-6
-0.618, -4.808e-6
-0.619, -4.818e-6
-0.620, -4.828e-6
-0.621, -4.838e-6
-0.622, -4.848e-6
-0.623, -4.858e-6
-0.624, -4.868e-6
-0.625, -4.877e-6
-0.626, -4.887e-6
-0.627, -4.897e-6
-0.628, -4.907e-6
-0.629, -4.916e-6
-0.630, -4.926e-6
-0.631, -4.935e-6
-0.632, -4.945e-6
-0.633, -4.955e-6
-0.634, -4.964e-6
-0.635, -4.974e-6
-0.636, -4.983e-6
-0.637, -4.992e-6
-0.638, -5.001e-6
-0.639, -5.011e-6
-0.640, -5.020e-6
-0.641, -5.029e-6
-0.642, -5.039e-6
-0.643, -5.048e-6
-0.644, -5.057e-6
-0.645, -5.066e-6
-0.646, -5.075e-6
-0.647, -5.085e-6
-0.648, -5.094e-6
-0.649, -5.103e-6
-0.650, -5.111e-6
-0.651, -5.120e-6
-0.652, -5.129e-6
-0.653, -5.138e-6
-0.654, -5.147e-6
-0.655, -5.156e-6
-0.656, -5.165e-6
-0.657, -5.174e-6
-0.658, -5.182e-6
-0.659, -5.191e-6
-0.660, -5.200e-6
-0.661, -5.209e-6
-0.662, -5.217e-6
-0.663, -5.226e-6
-0.664, -5.235e-6
-0.665, -5.244e-6
-0.666, -5.252e-6
-0.667, -5.261e-6
-0.668, -5.270e-6
-0.669, -5.278e-6
-0.670, -5.286e-6
-0.671, -5.295e-6
-0.672, -5.303e-6
-0.673, -5.312e-6
-0.674, -5.320e-6
-0.675, -5.329e-6
-0.676, -5.337e-6
-0.677, -5.346e-6
-0.678, -5.354e-6
-0.679, -5.362e-6
-0.680, -5.371e-6
-0.681, -5.379e-6
-0.682, -5.387e-6
-0.683, -5.396e-6
-0.684, -5.404e-6
-0.685, -5.412e-6
-0.686, -5.421e-6
-0.687, -5.429e-6
-0.688, -5.437e-6
-0.689, -5.445e-6
-0.690, -5.453e-6
-0.691, -5.462e-6
-0.692, -5.470e-6
-0.693, -5.478e-6
-0.694, -5.486e-6
-0.695, -5.494e-6
-0.696, -5.502e-6
-0.697, -5.511e-6
-0.698, -5.519e-6
-0.699, -5.527e-6
-0.700, -5.535e-6
-0.701, -5.543e-6
-0.702, -5.551e-6
-0.703, -5.560e-6
-0.704, -5.567e-6
-0.705, -5.576e-6
-0.706, -5.584e-6
-0.707, -5.592e-6
-0.708, -5.600e-6
-0.709, -5.608e-6
-0.710, -5.616e-6
-0.711, -5.624e-6
-0.712, -5.632e-6
-0.713, -5.640e-6
-0.714, -5.648e-6
-0.715, -5.656e-6
-0.716, -5.664e-6
-0.717, -5.672e-6
-0.718, -5.679e-6
-0.719, -5.688e-6
-0.720, -5.695e-6
-0.721, -5.704e-6
-0.722, -5.712e-6
-0.723, -5.720e-6
-0.724, -5.727e-6
-0.725, -5.736e-6
-0.726, -5.744e-6
-0.727, -5.751e-6
-0.728, -5.759e-6
-0.729, -5.768e-6
-0.730, -5.775e-6
-0.731, -5.783e-6
-0.732, -5.791e-6
-0.733, -5.799e-6
-0.734, -5.807e-6
-0.735, -5.815e-6
-0.736, -5.823e-6
-0.737, -5.831e-6
-0.738, -5.839e-6
-0.739, -5.847e-6
-0.740, -5.854e-6
-0.741, -5.863e-6
-0.742, -5.871e-6
-0.743, -5.879e-6
-0.744, -5.887e-6
-0.745, -5.895e-6
-0.746, -5.902e-6
-0.747, -5.911e-6
-0.748, -5.918e-6
-0.749, -5.927e-6
-0.750, -5.934e-6
-0.751, -5.943e-6
-0.752, -5.950e-6
-0.753, -5.958e-6
-0.754, -5.966e-6
-0.755, -5.974e-6
-0.756, -5.981e-6
-0.757, -5.990e-6
-0.758, -5.997e-6
-0.759, -6.005e-6
-0.760, -6.013e-6
-0.761, -6.022e-6
-0.762, -6.029e-6
-0.763, -6.037e-6
-0.764, -6.045e-6
-0.765, -6.053e-6
-0.766, -6.060e-6
-0.767, -6.069e-6
-0.768, -6.076e-6
-0.769, -6.084e-6
-0.770, -6.092e-6
-0.771, -6.100e-6
-0.772, -6.107e-6
-0.773, -6.116e-6
-0.774, -6.123e-6
-0.775, -6.131e-6
-0.776, -6.139e-6
-0.777, -6.147e-6
-0.778, -6.155e-6
-0.779, -6.163e-6
-0.780, -6.170e-6
-0.781, -6.178e-6
-0.782, -6.186e-6
-0.783, -6.193e-6
-0.784, -6.201e-6
-0.785, -6.209e-6
-0.786, -6.217e-6
-0.787, -6.225e-6
-0.788, -6.232e-6
-0.789, -6.240e-6
-0.790, -6.248e-6
-0.791, -6.256e-6
-0.792, -6.264e-6
-0.793, -6.271e-6
-0.794, -6.279e-6
-0.795, -6.287e-6
-0.796, -6.295e-6
-0.797, -6.303e-6
-0.798, -6.311e-6
-0.799, -6.319e-6
-0.800, -6.326e-6
-0.801, -6.334e-6
-0.802, -6.342e-6
-0.803, -6.350e-6
-0.804, -6.357e-6
-0.805, -6.365e-6
-0.806, -6.373e-6
-0.807, -6.381e-6
-0.808, -6.389e-6
-0.809, -6.397e-6
-0.810, -6.405e-6
-0.811, -6.412e-6
-0.812, -6.420e-6
-0.813, -6.428e-6
-0.814, -6.436e-6
-0.815, -6.444e-6
-0.816, -6.452e-6
-0.817, -6.460e-6
-0.818, -6.468e-6
-0.819, -6.476e-6
-0.820, -6.484e-6
-0.821, -6.492e-6
-0.822, -6.500e-6
-0.823, -6.508e-6
-0.824, -6.515e-6
-0.825, -6.524e-6
-0.826, -6.532e-6
-0.827, -6.540e-6
-0.828, -6.548e-6
-0.829, -6.556e-6
-0.830, -6.564e-6
-0.831, -6.572e-6
-0.832, -6.579e-6
-0.833, -6.588e-6
-0.834, -6.596e-6
-0.835, -6.604e-6
-0.836, -6.612e-6
-0.837, -6.620e-6
-0.838, -6.628e-6
-0.839, -6.636e-6
-0.840, -6.644e-6
-0.841, -6.652e-6
-0.842, -6.660e-6
-0.843, -6.668e-6
-0.844, -6.676e-6
-0.845, -6.684e-6
-0.846, -6.692e-6
-0.847, -6.700e-6
-0.848, -6.708e-6
-0.849, -6.716e-6
-0.850, -6.724e-6
-0.851, -6.733e-6
-0.852, -6.740e-6
-0.853, -6.749e-6
-0.854, -6.757e-6
-0.855, -6.765e-6
-0.856, -6.773e-6
-0.857, -6.781e-6
-0.858, -6.789e-6
-0.859, -6.798e-6
-0.860, -6.806e-6
-0.861, -6.814e-6
-0.862, -6.822e-6
-0.863, -6.831e-6
-0.864, -6.839e-6
-0.865, -6.847e-6
-0.866, -6.855e-6
-0.867, -6.864e-6
-0.868, -6.871e-6
-0.869, -6.880e-6
-0.870, -6.888e-6
-0.871, -6.897e-6
-0.872, -6.905e-6
-0.873, -6.914e-6
-0.874, -6.922e-6
-0.875, -6.931e-6
-0.876, -6.939e-6
-0.877, -6.948e-6
-0.878, -6.956e-6
-0.879, -6.965e-6
-0.880, -6.973e-6
-0.881, -6.981e-6
-0.882, -6.990e-6
-0.883, -6.999e-6
-0.884, -7.007e-6
-0.885, -7.016e-6
-0.886, -7.025e-6
-0.887, -7.033e-6
-0.888, -7.042e-6
-0.889, -7.051e-6
-0.890, -7.059e-6
-0.891, -7.068e-6
-0.892, -7.077e-6
-0.893, -7.085e-6
-0.894, -7.094e-6
-0.895, -7.103e-6
-0.896, -7.112e-6
-0.897, -7.121e-6
-0.898, -7.130e-6
-0.899, -7.139e-6
-0.900, -7.147e-6
-0.901, -7.157e-6
-0.902, -7.166e-6
-0.903, -7.175e-6
-0.904, -7.184e-6
-0.905, -7.193e-6
-0.906, -7.202e-6
-0.907, -7.211e-6
-0.908, -7.220e-6
-0.909, -7.229e-6
-0.910, -7.239e-6
-0.911, -7.248e-6
-0.912, -7.257e-6
-0.913, -7.267e-6
-0.914, -7.276e-6
-0.915, -7.286e-6
-0.916, -7.294e-6
-0.917, -7.305e-6
-0.918, -7.313e-6
-0.919, -7.323e-6
-0.920, -7.332e-6
-0.921, -7.341e-6
-0.922, -7.350e-6
-0.923, -7.360e-6
-0.924, -7.370e-6
-0.925, -7.379e-6
-0.926, -7.389e-6
-0.927, -7.400e-6
-0.928, -7.410e-6
-0.929, -7.420e-6
-0.930, -7.431e-6
-0.931, -7.441e-6
-0.932, -7.451e-6
-0.933, -7.461e-6
-0.934, -7.471e-6
-0.935, -7.481e-6
-0.936, -7.491e-6
-0.937, -7.502e-6
-0.938, -7.513e-6
-0.939, -7.523e-6
-0.940, -7.534e-6
-0.941, -7.544e-6
-0.942, -7.554e-6
-0.943, -7.566e-6
-0.944, -7.577e-6
-0.945, -7.588e-6
-0.946, -7.599e-6
-0.947, -7.609e-6
-0.948, -7.619e-6
-0.949, -7.630e-6
-0.950, -7.641e-6
-0.951, -7.652e-6
-0.952, -7.664e-6
-0.953, -7.675e-6
-0.954, -7.687e-6
-0.955, -7.698e-6
-0.956, -7.710e-6
-0.957, -7.721e-6
-0.958, -7.732e-6
-0.959, -7.744e-6
-0.960, -7.757e-6
-0.961, -7.768e-6
-0.962, -7.780e-6
-0.963, -7.792e-6
-0.964, -7.804e-6
-0.965, -7.817e-6
-0.966, -7.830e-6
-0.967, -7.843e-6
-0.968, -7.855e-6
-0.969, -7.868e-6
-0.970, -7.880e-6
-0.971, -7.892e-6
-0.972, -7.904e-6
-0.973, -7.917e-6
-0.974, -7.932e-6
-0.975, -7.945e-6
-0.976, -7.958e-6
-0.977, -7.971e-6
-0.978, -7.985e-6
-0.979, -7.999e-6
-0.980, -8.012e-6
-0.981, -8.026e-6
-0.982, -8.039e-6
-0.983, -8.053e-6
-0.984, -8.067e-6
-0.985, -8.081e-6
-0.986, -8.096e-6
-0.987, -8.110e-6
-0.988, -8.125e-6
-0.989, -8.139e-6
-0.990, -8.153e-6
-0.991, -8.169e-6
-0.992, -8.183e-6
-0.993, -8.199e-6
-0.994, -8.214e-6
-0.995, -8.229e-6
-0.996, -8.243e-6
-0.997, -8.259e-6
-0.998, -8.275e-6
-0.999, -8.290e-6

Segment 2:
-1.000, -8.292e-6
-0.999, -8.252e-6
-0.998, -8.201e-6
-0.997, -8.153e-6
-0.996, -8.105e-6
-0.995, -8.060e-6
-0.994, -8.016e-6
-0.993, -7.972e-6
-0.992, -7.930e-6
-0.991, -7.889e-6
-0.990, -7.848e-6
-0.989, -7.808e-6
-0.988, -7.770e-6
-0.987, -7.731e-6
-0.986, -7.693e-6
-0.985, -7.655e-6
-0.984, -7.618e-6
-0.983, -7.582e-6
-0.982, -7.546e-6
-0.981, -7.511e-6
-0.980, -7.475e-6
-0.979, -7.441e-6
-0.978, -7.407e-6
-0.977, -7.374e-6
-0.976, -7.340e-6
-0.975, -7.308e-6
-0.974, -7.274e-6
-0.973, -7.242e-6
-0.972, -7.211e-6
-0.971, -7.179e-6
-0.970, -7.147e-6
-0.969, -7.117e-6
-0.968, -7.085e-6
-0.967, -7.055e-6
-0.966, -7.025e-6
-0.965, -6.995e-6
-0.964, -6.965e-6
-0.963, -6.936e-6
-0.962, -6.906e-6
-0.961, -6.877e-6
-0.960, -6.849e-6
-0.959, -6.821e-6
-0.958, -6.792e-6
-0.957, -6.764e-6
-0.956, -6.736e-6
-0.955, -6.709e-6
-0.954, -6.681e-6
-0.953, -6.654e-6
-0.952, -6.627e-6
-0.951, -6.600e-6
-0.950, -6.573e-6
-0.949, -6.547e-6
-0.948, -6.520e-6
-0.947, -6.494e-6
-0.946, -6.468e-6
-0.945, -6.442e-6
-0.944, -6.417e-6
-0.943, -6.392e-6
-0.942, -6.366e-6
-0.941, -6.341e-6
-0.940, -6.316e-6
-0.939, -6.292e-6
-0.938, -6.267e-6
-0.937, -6.243e-6
-0.936, -6.218e-6
-0.935, -6.194e-6
-0.934, -6.170e-6
-0.933, -6.146e-6
-0.932, -6.122e-6
-0.931, -6.099e-6
-0.930, -6.076e-6
-0.929, -6.052e-6
-0.928, -6.029e-6
-0.927, -6.006e-6
-0.926, -5.983e-6
-0.925, -5.960e-6
-0.924, -5.938e-6
-0.923, -5.915e-6
-0.922, -5.893e-6
-0.921, -5.872e-6
-0.920, -5.849e-6
-0.919, -5.828e-6
-0.918, -5.805e-6
-0.917, -5.784e-6
-0.916, -5.762e-6
-0.915, -5.741e-6
-0.914, -5.720e-6
-0.913, -5.698e-6
-0.912, -5.677e-6
-0.911, -5.656e-6
-0.910, -5.635e-6
-0.909, -5.614e-6
-0.908, -5.593e-6
-0.907, -5.572e-6
-0.906, -5.552e-6
-0.905, -5.531e-6
-0.904, -5.511e-6
-0.903, -5.490e-6
-0.902, -5.470e-6
-0.901, -5.450e-6
-0.900, -5.430e-6
-0.899, -5.410e-6
-0.898, -5.391e-6
-0.897, -5.371e-6
-0.896, -5.351e-6
-0.895, -5.331e-6
-0.894, -5.312e-6
-0.893, -5.293e-6
-0.892, -5.274e-6
-0.891, -5.254e-6
-0.890, -5.235e-6
-0.889, -5.216e-6
-0.888, -5.197e-6
-0.887, -5.178e-6
-0.886, -5.159e-6
-0.885, -5.141e-6
-0.884, -5.122e-6
-0.883, -5.103e-6
-0.882, -5.084e-6
-0.881, -5.066e-6
-0.880, -5.048e-6
-0.879, -5.030e-6
-0.878, -5.011e-6
-0.877, -4.994e-6
-0.876, -4.976e-6
-0.875, -4.958e-6
-0.874, -4.940e-6
-0.873, -4.922e-6
-0.872, -4.905e-6
-0.871, -4.887e-6
-0.870, -4.870e-6
-0.869, -4.853e-6
-0.868, -4.835e-6
-0.867, -4.818e-6
-0.866, -4.801e-6
-0.865, -4.784e-6
-0.864, -4.767e-6
-0.863, -4.750e-6
-0.862, -4.732e-6
-0.861, -4.716e-6
-0.860, -4.699e-6
-0.859, -4.682e-6
-0.858, -4.665e-6
-0.857, -4.649e-6
-0.856, -4.632e-6
-0.855, -4.615e-6
-0.854, -4.599e-6
-0.853, -4.583e-6
-0.852, -4.566e-6
-0.851, -4.550e-6
-0.850, -4.534e-6
-0.849, -4.518e-6
-0.848, -4.502e-6
-0.847, -4.486e-6
-0.846, -4.470e-6
-0.845, -4.454e-6
-0.844, -4.438e-6
-0.843, -4.422e-6
-0.842, -4.406e-6
-0.841, -4.391e-6
-0.840, -4.375e-6
-0.839, -4.360e-6
-0.838, -4.345e-6
-0.837, -4.329e-6
-0.836, -4.314e-6
-0.835, -4.299e-6
-0.834, -4.284e-6
-0.833, -4.268e-6
-0.832, -4.253e-6
-0.831, -4.239e-6
-0.830, -4.224e-6
-0.829, -4.209e-6
-0.828, -4.194e-6
-0.827, -4.179e-6
-0.826, -4.164e-6
-0.825, -4.149e-6
-0.824, -4.135e-6
-0.823, -4.120e-6
-0.822, -4.105e-6
-0.821, -4.091e-6
-0.820, -4.076e-6
-0.819, -4.062e-6
-0.818, -4.047e-6
-0.817, -4.033e-6
-0.816, -4.018e-6
-0.815, -4.005e-6
-0.814, -3.990e-6
-0.813, -3.976e-6
-0.812, -3.962e-6
-0.811, -3.948e-6
-0.810, -3.934e-6
-0.809, -3.920e-6
-0.808, -3.906e-6
-0.807, -3.893e-6
-0.806, -3.879e-6
-0.805, -3.865e-6
-0.804, -3.851e-6
-0.803, -3.837e-6
-0.802, -3.823e-6
-0.801, -3.810e-6
-0.800, -3.796e-6
-0.799, -3.783e-6
-0.798, -3.769e-6
-0.797, -3.756e-6
-0.796, -3.742e-6
-0.795, -3.729e-6
-0.794, -3.716e-6
-0.793, -3.702e-6
-0.792, -3.689e-6
-0.791, -3.676e-6
-0.790, -3.663e-6
-0.789, -3.650e-6
-0.788, -3.636e-6
-0.787, -3.623e-6
-0.786, -3.610e-6
-0.785, -3.597e-6
-0.784, -3.584e-6
-0.783, -3.572e-6
-0.782, -3.559e-6
-0.781, -3.546e-6
-0.780, -3.533e-6
-0.779, -3.520e-6
-0.778, -3.508e-6
-0.777, -3.495e-6
-0.776, -3.483e-6
-0.775, -3.470e-6
-0.774, -3.458e-6
-0.773, -3.446e-6
-0.772, -3.433e-6
-0.771, -3.421e-6
-0.770, -3.408e-6
-0.769, -3.396e-6
-0.768, -3.384e-6
-0.767, -3.371e-6
-0.766, -3.359e-6
-0.765, -3.347e-6
-0.764, -3.335e-6
-0.763, -3.322e-6
-0.762, -3.310e-6
-0.761, -3.298e-6
-0.760, -3.286e-6
-0.759, -3.274e-6
-0.758, -3.262e-6
-0.757, -3.250e-6
-0.756, -3.238e-6
-0.755, -3.227e-6
-0.754, -3.215e-6
-0.753, -3.203e-6
-0.752, -3.191e-6
-0.751, -3.179e-6
-0.750, -3.167e-6
-0.749, -3.155e-6
-0.748, -3.144e-6
-0.747, -3.132e-6
-0.746, -3.120e-6
-0.745, -3.109e-6
-0.744, -3.098e-6
-0.743, -3.086e-6
-0.742, -3.075e-6
-0.741, -3.063e-6
-0.740, -3.052e-6
-0.739, -3.041e-6
-0.738, -3.029e-6
-0.737, -3.017e-6
-0.736, -3.006e-6
-0.735, -2.995e-6
-0.734, -2.983e-6
-0.733, -2.972e-6
-0.732, -2.961e-6
-0.731, -2.950e-6
-0.730, -2.939e-6
-0.729, -2.927e-6
-0.728, -2.916e-6
-0.727, -2.905e-6
-0.726, -2.894e-6
-0.725, -2.883e-6
-0.724, -2.872e-6
-0.723, -2.861e-6
-0.722, -2.850e-6
-0.721, -2.839e-6
-0.720, -2.828e-6
-0.719, -2.818e-6
-0.718, -2.807e-6
-0.717, -2.796e-6
-0.716, -2.786e-6
-0.715, -2.775e-6
-0.714, -2.764e-6
-0.713, -2.754e-6
-0.712, -2.743e-6
-0.711, -2.732e-6
-0.710, -2.722e-6
-0.709, -2.711e-6
-0.708, -2.700e-6
-0.707, -2.690e-6
-0.706, -2.679e-6
-0.705, -2.669e-6
-0.704, -2.658e-6
-0.703, -2.648e-6
-0.702, -2.637e-6
-0.701, -2.627e-6
-0.700, -2.616e-6
-0.699, -2.606e-6
-0.698, -2.596e-6
-0.697, -2.585e-6
-0.696, -2.575e-6
-0.695, -2.565e-6
-0.694, -2.555e-6
-0.693, -2.545e-6
-0.692, -2.534e-6
-0.691, -2.524e-6
-0.690, -2.514e-6
-0.689, -2.503e-6
-0.688, -2.493e-6
-0.687, -2.483e-6
-0.686, -2.473e-6
-0.685, -2.463e-6
-0.684, -2.453e-6
-0.683, -2.443e-6
-0.682, -2.433e-6
-0.681, -2.423e-6
-0.680, -2.413e-6
-0.679, -2.403e-6
-0.678, -2.393e-6
-0.677, -2.383e-6
-0.676, -2.373e-6
-0.675, -2.363e-6
-0.674, -2.354e-6
-0.673, -2.344e-6
-0.672, -2.334e-6
-0.671, -2.324e-6
-0.670, -2.314e-6
-0.669, -2.305e-6
-0.668, -2.295e-6
-0.667, -2.285e-6
-0.666, -2.276e-6
-0.665, -2.266e-6
-0.664, -2.256e-6
-0.663, -2.247e-6
-0.662, -2.237e-6
-0.661, -2.227e-6
-0.660, -2.218e-6
-0.659, -2.208e-6
-0.658, -2.199e-6
-0.657, -2.189e-6
-0.656, -2.180e-6
-0.655, -2.171e-6
-0.654, -2.161e-6
-0.653, -2.152e-6
-0.652, -2.142e-6
-0.651, -2.133e-6
-0.650, -2.123e-6
-0.649, -2.114e-6
-0.648, -2.105e-6
-0.647, -2.095e-6
-0.646, -2.086e-6
-0.645, -2.077e-6
-0.644, -2.067e-6
-0.643, -2.058e-6
-0.642, -2.049e-6
-0.641, -2.040e-6
-0.640, -2.031e-6
-0.639, -2.022e-6
-0.638, -2.012e-6
-0.637, -2.003e-6
-0.636, -1.994e-6
-0.635, -1.985e-6
-0.634, -1.976e-6
-0.633, -1.967e-6
-0.632, -1.958e-6
-0.631, -1.949e-6
-0.630, -1.940e-6
-0.629, -1.931e-6
-0.628, -1.922e-6
-0.627, -1.913e-6
-0.626, -1.904e-6
-0.625, -1.895e-6
-0.624, -1.886e-6
-0.623, -1.878e-6
-0.622, -1.869e-6
-0.621, -1.860e-6
-0.620, -1.851e-6
-0.619, -1.842e-6
-0.618, -1.833e-6
-0.617, -1.825e-6
-0.616, -1.816e-6
-0.615, -1.807e-6
-0.614, -1.798e-6
-0.613, -1.790e-6
-0.612, -1.781e-6
-0.611, -1.772e-6
-0.610, -1.764e-6
-0.609, -1.755e-6
-0.608, -1.746e-6
-0.607, -1.738e-6
-0.606, -1.729e-6
-0.605, -1.720e-6
-0.604, -1.712e-6
-0.603, -1.704e-6
-0.602, -1.695e-6
-0.601, -1.687e-6
-0.600, -1.678e-6
-0.599, -1.669e-6
-0.598, -1.661e-6
-0.597, -1.653e-6
-0.596, -1.644e-6
-0.595, -1.636e-6
-0.594, -1.627e-6
-0.593, -1.619e-6
-0.592, -1.610e-6
-0.591, -1.602e-6
-0.590, -1.594e-6
-0.589, -1.586e-6
-0.588, -1.577e-6
-0.587, -1.569e-6
-0.586, -1.561e-6
-0.585, -1.553e-6
-0.584, -1.544e-6
-0.583, -1.536e-6
-0.582, -1.528e-6
-0.581, -1.520e-6
-0.580, -1.511e-6
-0.579, -1.503e-6
-0.578, -1.495e-6
-0.577, -1.487e-6
-0.576, -1.479e-6
-0.575, -1.471e-6
-0.574, -1.462e-6
-0.573, -1.454e-6
-0.572, -1.446e-6
-0.571, -1.438e-6
-0.570, -1.430e-6
-0.569, -1.422e-6
-0.568, -1.414e-6
-0.567, -1.406e-6
-0.566, -1.398e-6
-0.565, -1.390e-6
-0.564, -1.382e-6
-0.563, -1.374e-6
-0.562, -1.366e-6
-0.561, -1.358e-6
-0.560, -1.350e-6
-0.559, -1.343e-6
-0.558, -1.334e-6
-0.557, -1.327e-6
-0.556, -1.319e-6
-0.555, -1.311e-6
-0.554, -1.303e-6
-0.553, -1.295e-6
-0.552, -1.287e-6
-0.551, -1.280e-6
-0.550, -1.272e-6
-0.549, -1.264e-6
-0.548, -1.256e-6
-0.547, -1.249e-6
-0.546, -1.241e-6
-0.545, -1.233e-6
-0.544, -1.225e-6
-0.543, -1.218e-6
-0.542, -1.210e-6
-0.541, -1.202e-6
-0.540, -1.195e-6
-0.539, -1.187e-6
-0.538, -1.179e-6
-0.537, -1.172e-6
-0.536, -1.164e-6
-0.535, -1.157e-6
-0.534, -1.149e-6
-0.533, -1.142e-6
-0.532, -1.134e-6
-0.531, -1.126e-6
-0.530, -1.119e-6
-0.529, -1.111e-6
-0.528, -1.104e-6
-0.527, -1.097e-6
-0.526, -1.089e-6
-0.525, -1.082e-6
-0.524, -1.074e-6
-0.523, -1.067e-6
-0.522, -1.059e-6
-0.521, -1.052e-6
-0.520, -1.044e-6
-0.519, -1.037e-6
-0.518, -1.029e-6
-0.517, -1.022e-6
-0.516, -1.015e-6
-0.515, -1.008e-6
-0.514, -1.000e-6
-0.513, -9.928e-7
-0.512, -9.857e-7
-0.511, -9.787e-7
-0.510, -9.712e-7
-0.509, -9.640e-7
-0.508, -9.568e-7
-0.507, -9.495e-7
-0.506, -9.423e-7
-0.505, -9.352e-7
-0.504, -9.279e-7
-0.503, -9.208e-7
-0.502, -9.137e-7
-0.501, -9.066e-7
-0.500, -8.993e-7
-0.499, -8.923e-7
-0.498, -8.851e-7
-0.497, -8.781e-7
-0.496, -8.711e-7
-0.495, -8.642e-7
-0.494, -8.569e-7
-0.493, -8.502e-7
-0.492, -8.431e-7
-0.491, -8.362e-7
-0.490, -8.291e-7
-0.489, -8.224e-7
-0.488, -8.153e-7
-0.487, -8.084e-7
-0.486, -8.015e-7
-0.485, -7.947e-7
-0.484, -7.878e-7
-0.483, -7.812e-7
-0.482, -7.743e-7
-0.481, -7.674e-7
-0.480, -7.605e-7
-0.479, -7.538e-7
-0.478, -7.467e-7
-0.477, -7.401e-7
-0.476, -7.333e-7
-0.475, -7.265e-7
-0.474, -7.196e-7
-0.473, -7.129e-7
-0.472, -7.059e-7
-0.471, -6.993e-7
-0.470, -6.925e-7
-0.469, -6.859e-7
-0.468, -6.791e-7
-0.467, -6.726e-7
-0.466, -6.658e-7
-0.465, -6.592e-7
-0.464, -6.525e-7
-0.463, -6.461e-7
-0.462, -6.394e-7
-0.461, -6.331e-7
-0.460, -6.263e-7
-0.459, -6.198e-7
-0.458, -6.132e-7
-0.457, -6.070e-7
-0.456, -6.004e-7
-0.455, -5.940e-7
-0.454, -5.874e-7
-0.453, -5.812e-7
-0.452, -5.746e-7
-0.451, -5.685e-7
-0.450, -5.620e-7
-0.449, -5.556e-7
-0.448, -5.493e-7
-0.447, -5.432e-7
-0.446, -5.367e-7
-0.445, -5.306e-7
-0.444, -5.243e-7
-0.443, -5.181e-7
-0.442, -5.118e-7
-0.441, -5.057e-7
-0.440, -4.993e-7
-0.439, -4.933e-7
-0.438, -4.871e-7
-0.437, -4.811e-7
-0.436, -4.748e-7
-0.435, -4.689e-7
-0.434, -4.628e-7
-0.433, -4.567e-7
-0.432, -4.507e-7
-0.431, -4.449e-7
-0.430, -4.385e-7
-0.429, -4.328e-7
-0.428, -4.267e-7
-0.427, -4.208e-7
-0.426, -4.147e-7
-0.425, -4.091e-7
-0.424, -4.030e-7
-0.423, -3.972e-7
-0.422, -3.912e-7
-0.421, -3.856e-7
-0.420, -3.796e-7
-0.419, -3.740e-7
-0.418, -3.681e-7
-0.417, -3.624e-7
-0.416, -3.566e-7
-0.415, -3.510e-7
-0.414, -3.450e-7
-0.413, -3.395e-7
-0.412, -3.337e-7
-0.411, -3.280e-7
-0.410, -3.224e-7
-0.409, -3.171e-7
-0.408, -3.112e-7
-0.407, -3.058e-7
-0.406, -3.002e-7
-0.405, -2.947e-7
-0.404, -2.890e-7
-0.403, -2.836e-7
-0.402, -2.779e-7
-0.401, -2.724e-7
-0.400, -2.670e-7
-0.399, -2.616e-7
-0.398, -2.558e-7
-0.397, -2.506e-7
-0.396, -2.450e-7
-0.395, -2.396e-7
-0.394, -2.341e-7
-0.393, -2.290e-7
-0.392, -2.234e-7
-0.391, -2.181e-7
-0.390, -2.127e-7
-0.389, -2.074e-7
-0.388, -2.019e-7
-0.387, -1.969e-7
-0.386, -1.914e-7
-0.385, -1.861e-7
-0.384, -1.808e-7
-0.383, -1.757e-7
-0.382, -1.702e-7
-0.381, -1.652e-7
-0.380, -1.600e-7
-0.379, -1.547e-7
-0.378, -1.495e-7
-0.377, -1.445e-7
-0.376, -1.392e-7
-0.375, -1.341e-7
-0.374, -1.290e-7
-0.373, -1.240e-7
-0.372, -1.187e-7
-0.371, -1.138e-7
-0.370, -1.086e-7
-0.369, -1.036e-7
-0.368, -9.842e-8
-0.367, -9.369e-8
-0.366, -8.832e-8
-0.365, -8.351e-8
-0.364, -7.843e-8
-0.363, -7.348e-8
-0.362, -6.847e-8
-0.361, -6.367e-8
-0.360, -5.845e-8
-0.359, -5.371e-8
-0.358, -4.862e-8
-0.357, -4.384e-8
-0.356, -3.872e-8
-0.355, -3.409e-8
-0.354, -2.904e-8
-0.353, -2.411e-8
-0.352, -1.925e-8
-0.351, -1.460e-8
-0.350, -9.485e-9
-0.349, -4.884e-9
-0.348, -5.649e-11
-0.347, 4.702e-9
-0.346, 9.575e-9
-0.345, 1.421e-8
-0.344, 1.921e-8
-0.343, 2.378e-8
-0.342, 2.858e-8
-0.341, 3.322e-8
-0.340, 3.807e-8
-0.339, 4.266e-8
-0.338, 4.744e-8
-0.337, 5.211e-8
-0.336, 5.688e-8
-0.335, 6.133e-8
-0.334, 6.624e-8
-0.333, 7.065e-8
-0.332, 7.534e-8
-0.331, 7.987e-8
-0.330, 8.452e-8
-0.329, 8.898e-8
-0.328, 9.383e-8
-0.327, 9.829e-8
-0.326, 1.029e-7
-0.325, 1.073e-7
-0.324, 1.120e-7
-0.323, 1.165e-7
-0.322, 1.210e-7
-0.321, 1.257e-7
-0.320, 1.302e-7
-0.319, 1.346e-7
-0.318, 1.393e-7
-0.317, 1.436e-7
-0.316, 1.481e-7
-0.315, 1.526e-7
-0.314, 1.571e-7
-0.313, 1.613e-7
-0.312, 1.659e-7
-0.311, 1.702e-7
-0.310, 1.746e-7
-0.309, 1.790e-7
-0.308, 1.836e-7
-0.307, 1.875e-7
-0.306, 1.919e-7
-0.305, 1.963e-7
-0.304, 2.006e-7
-0.303, 2.047e-7
-0.302, 2.094e-7
-0.301, 2.136e-7
-0.300, 2.181e-7
-0.299, 2.223e-7
-0.298, 2.266e-7
-0.297, 2.307e-7
-0.296, 2.352e-7
-0.295, 2.393e-7
-0.294, 2.436e-7
-0.293, 2.478e-7
-0.292, 2.523e-7
-0.291, 2.563e-7
-0.290, 2.604e-7
-0.289, 2.647e-7
-0.288, 2.690e-7
-0.287, 2.730e-7
-0.286, 2.775e-7
-0.285, 2.815e-7
-0.284, 2.857e-7
-0.283, 2.899e-7
-0.282, 2.942e-7
-0.281, 2.982e-7
-0.280, 3.025e-7
-0.279, 3.065e-7
-0.278, 3.105e-7
-0.277, 3.145e-7
-0.276, 3.188e-7
-0.275, 3.227e-7
-0.274, 3.269e-7
-0.273, 3.310e-7
-0.272, 3.351e-7
-0.271, 3.390e-7
-0.270, 3.433e-7
-0.269, 3.471e-7
-0.268, 3.512e-7
-0.267, 3.553e-7
-0.266, 3.594e-7
-0.265, 3.632e-7
-0.264, 3.674e-7
-0.263, 3.712e-7
-0.262, 3.753e-7
-0.261, 3.793e-7
-0.260, 3.834e-7
-0.259, 3.871e-7
-0.258, 3.911e-7
-0.257, 3.950e-7
-0.256, 3.990e-7
-0.255, 4.027e-7
-0.254, 4.070e-7
-0.253, 4.106e-7
-0.252, 4.146e-7
-0.251, 4.185e-7
-0.250, 4.224e-7
-0.249, 4.262e-7
-0.248, 4.302e-7
-0.247, 4.340e-7
-0.246, 4.380e-7
-0.245, 4.417e-7
-0.244, 4.458e-7
-0.243, 4.494e-7
-0.242, 4.534e-7
-0.241, 4.572e-7
-0.240, 4.610e-7
-0.239, 4.646e-7
-0.238, 4.687e-7
-0.237, 4.723e-7
-0.236, 4.761e-7
-0.235, 4.799e-7
-0.234, 4.838e-7
-0.233, 4.873e-7
-0.232, 4.913e-7
-0.231, 4.949e-7
-0.230, 4.986e-7
-0.229, 5.024e-7
-0.228, 5.063e-7
-0.227, 5.098e-7
-0.226, 5.137e-7
-0.225, 5.173e-7
-0.224, 5.212e-7
-0.223, 5.247e-7
-0.222, 5.287e-7
-0.221, 5.320e-7
-0.220, 5.358e-7
-0.219, 5.394e-7
-0.218, 5.433e-7
-0.217, 5.468e-7
-0.216, 5.506e-7
-0.215, 5.541e-7
-0.214, 5.577e-7
-0.213, 5.613e-7
-0.212, 5.652e-7
-0.211, 5.686e-7
-0.210, 5.724e-7
-0.209, 5.759e-7
-0.208, 5.795e-7
-0.207, 5.828e-7
-0.206, 5.868e-7
-0.205, 5.902e-7
-0.204, 5.939e-7
-0.203, 5.975e-7
-0.202, 6.011e-7
-0.201, 6.044e-7
-0.200, 6.082e-7
-0.199, 6.116e-7
-0.198, 6.152e-7
-0.197, 6.187e-7
-0.196, 6.224e-7
-0.195, 6.257e-7
-0.194, 6.293e-7
-0.193, 6.328e-7
-0.192, 6.364e-7
-0.191, 6.397e-7
-0.190, 6.435e-7
-0.189, 6.467e-7
-0.188, 6.503e-7
-0.187, 6.537e-7
-0.186, 6.573e-7
-0.185, 6.607e-7
-0.184, 6.643e-7
-0.183, 6.676e-7
-0.182, 6.711e-7
-0.181, 6.745e-7
-0.180, 6.781e-7
-0.179, 6.813e-7
-0.178, 6.849e-7
-0.177, 6.883e-7
-0.176, 6.917e-7
-0.175, 6.949e-7
-0.174, 6.986e-7
-0.173, 7.018e-7
-0.172, 7.053e-7
-0.171, 7.086e-7
-0.170, 7.121e-7
-0.169, 7.152e-7
-0.168, 7.189e-7
-0.167, 7.221e-7
-0.166, 7.255e-7
-0.165, 7.288e-7
-0.164, 7.324e-7
-0.163, 7.354e-7
-0.162, 7.390e-7
-0.161, 7.422e-7
-0.160, 7.457e-7
-0.159, 7.487e-7
-0.158, 7.524e-7
-0.157, 7.553e-7
-0.156, 7.588e-7
-0.155, 7.619e-7
-0.154, 7.654e-7
-0.153, 7.684e-7
-0.152, 7.719e-7
-0.151, 7.750e-7
-0.150, 7.783e-7
-0.149, 7.814e-7
-0.148, 7.848e-7
-0.147, 7.879e-7
-0.146, 7.912e-7
-0.145, 7.943e-7
-0.144, 7.975e-7
-0.143, 8.004e-7
-0.142, 8.039e-7
-0.141, 8.067e-7
-0.140, 8.099e-7
-0.139, 8.130e-7
-0.138, 8.161e-7
-0.137, 8.189e-7
-0.136, 8.223e-7
-0.135, 8.251e-7
-0.134, 8.283e-7
-0.133, 8.311e-7
-0.132, 8.344e-7
-0.131, 8.371e-7
-0.130, 8.402e-7
-0.129, 8.430e-7
-0.128, 8.460e-7
-0.127, 8.486e-7
-0.126, 8.519e-7
-0.125, 8.543e-7
-0.124, 8.573e-7
-0.123, 8.600e-7
-0.122, 8.629e-7
-0.121, 8.654e-7
-0.120, 8.684e-7
-0.119, 8.709e-7
-0.118, 8.737e-7
-0.117, 8.763e-7
-0.116, 8.792e-7
-0.115, 8.816e-7
-0.114, 8.843e-7
-0.113, 8.870e-7
-0.112, 8.897e-7
-0.111, 8.919e-7
-0.110, 8.949e-7
-0.109, 8.973e-7
-0.108, 9.000e-7
-0.107, 9.026e-7
-0.106, 9.053e-7
-0.105, 9.075e-7
-0.104, 9.104e-7
-0.103, 9.127e-7
-0.102, 9.151e-7
-0.101, 9.176e-7
-0.100, 9.204e-7
-0.099, 9.226e-7
-0.098, 9.253e-7
-0.097, 9.277e-7
-0.096, 9.304e-7
-0.095, 9.327e-7
-0.094, 9.356e-7
-0.093, 9.379e-7
-0.092, 9.406e-7
-0.091, 9.431e-7
-0.090, 9.459e-7
-0.089, 9.482e-7
-0.088, 9.511e-7
-0.087, 9.535e-7
-0.086, 9.562e-7
-0.085, 9.586e-7
-0.084, 9.614e-7
-0.083, 9.638e-7
-0.082, 9.666e-7
-0.081, 9.691e-7
-0.080, 9.718e-7
-0.079, 9.740e-7
-0.078, 9.769e-7
-0.077, 9.793e-7
-0.076, 9.820e-7
-0.075, 9.846e-7
-0.074, 9.872e-7
-0.073, 9.894e-7
-0.072, 9.922e-7
-0.071, 9.947e-7
-0.070, 9.974e-7
-0.069, 9.998e-7
-0.068, 1.003e-6
-0.067, 1.005e-6
-0.066, 1.008e-6
-0.065, 1.010e-6
-0.064, 1.013e-6
-0.063, 1.015e-6
-0.062, 1.018e-6
-0.061, 1.020e-6
-0.060, 1.023e-6
-0.059, 1.025e-6
-0.058, 1.028e-6
-0.057, 1.030e-6
-0.056, 1.033e-6
-0.055, 1.035e-6
-0.054, 1.038e-6
-0.053, 1.040e-6
-0.052, 1.043e-6
-0.051, 1.045e-6
-0.050, 1.048e-6
-0.049, 1.051e-6
-0.048, 1.053e-6
-0.047, 1.055e-6
-0.046, 1.058e-6
-0.045, 1.060e-6
-0.044, 1.063e-6
-0.043, 1.066e-6
-0.042, 1.068e-6
-0.041, 1.070e-6
-0.040, 1.073e-6
-0.039, 1.075e-6
-0.038, 1.078e-6
-0.037, 1.080e-6
-0.036, 1.083e-6
-0.035, 1.085e-6
-0.034, 1.087e-6
-0.033, 1.090e-6
-0.032, 1.092e-6
-0.031, 1.094e-6
-0.030, 1.097e-6
-0.029, 1.099e-6
-0.028, 1.102e-6
-0.027, 1.104e-6
-0.026, 1.107e-6
-0.025, 1.109e-6
-0.024, 1.111e-6
-0.023, 1.114e-6
-0.022, 1.116e-6
-0.021, 1.118e-6
-0.020, 1.121e-6
-0.019, 1.123e-6
-0.018, 1.126e-6
-0.017, 1.128e-6
-0.016, 1.130e-6
-0.015, 1.132e-6
-0.014, 1.135e-6
-0.013, 1.137e-6
-0.012, 1.139e-6
-0.011, 1.142e-6
-0.010, 1.144e-6
-0.009, 1.146e-6
-0.008, 1.149e-6
-0.007, 1.151e-6
-0.006, 1.153e-6
-0.005, 1.155e-6
-0.004, 1.158e-6
-0.003, 1.160e-6
-0.002, 1.162e-6
-0.001, 1.164e-6
-0.000, 1.167e-6
0.001, 1.169e-6
0.002, 1.171e-6
0.003, 1.173e-6
0.004, 1.175e-6
0.005, 1.178e-6
0.006, 1.180e-6
0.007, 1.182e-6
0.008, 1.185e-6
0.009, 1.186e-6
0.010, 1.189e-6
0.011, 1.191e-6
0.012, 1.193e-6
0.013, 1.195e-6
0.014, 1.198e-6
0.015, 1.200e-6
0.016, 1.202e-6
0.017, 1.204e-6
0.018, 1.207e-6
0.019, 1.208e-6
0.020, 1.211e-6
0.021, 1.213e-6
0.022, 1.215e-6
0.023, 1.217e-6
0.024, 1.219e-6
0.025, 1.221e-6
0.026, 1.223e-6
0.027, 1.225e-6
0.028, 1.228e-6
0.029, 1.230e-6
0.030, 1.232e-6
0.031, 1.234e-6
0.032, 1.236e-6
0.033, 1.238e-6
0.034, 1.240e-6
0.035, 1.242e-6
0.036, 1.244e-6
0.037, 1.246e-6
0.038, 1.249e-6
0.039, 1.250e-6
0.040, 1.253e-6
0.041, 1.255e-6
0.042, 1.257e-6
0.043, 1.259e-6
0.044, 1.261e-6
0.045, 1.263e-6
0.046, 1.265e-6
0.047, 1.267e-6
0.048, 1.269e-6
0.049, 1.271e-6
0.050, 1.273e-6
0.051, 1.275e-6
0.052, 1.277e-6
0.053, 1.279e-6
0.054, 1.281e-6
0.055, 1.283e-6
0.056, 1.285e-6
0.057, 1.287e-6
0.058, 1.289e-6
0.059, 1.291e-6
0.060, 1.293e-6
0.061, 1.295e-6
0.062, 1.297e-6
0.063, 1.299e-6
0.064, 1.301e-6
0.065, 1.303e-6
0.066, 1.305e-6
0.067, 1.307e-6
0.068, 1.309e-6
0.069, 1.311e-6
0.070, 1.313e-6
0.071, 1.314e-6
0.072, 1.317e-6
0.073, 1.318e-6
0.074, 1.320e-6
0.075, 1.322e-6
0.076, 1.324e-6
0.077, 1.326e-6
0.078, 1.328e-6
0.079, 1.330e-6
0.080, 1.332e-6
0.081, 1.333e-6
0.082, 1.336e-6
0.083, 1.337e-6
0.084, 1.339e-6
0.085, 1.341e-6
0.086, 1.343e-6
0.087, 1.345e-6
0.088, 1.347e-6
0.089, 1.348e-6
0.090, 1.350e-6
0.091, 1.352e-6
0.092, 1.354e-6
0.093, 1.356e-6
0.094, 1.358e-6
0.095, 1.360e-6
0.096, 1.362e-6
0.097, 1.363e-6
0.098, 1.365e-6
0.099, 1.367e-6
0.100, 1.369e-6
0.101, 1.371e-6
0.102, 1.372e-6
0.103, 1.374e-6
0.104, 1.376e-6
0.105, 1.377e-6
0.106, 1.379e-6
0.107, 1.381e-6
0.108, 1.383e-6
0.109, 1.385e-6
0.110, 1.387e-6
0.111, 1.388e-6
0.112, 1.390e-6
0.113, 1.391e-6
0.114, 1.394e-6
0.115, 1.395e-6
0.116, 1.397e-6
0.117, 1.399e-6
0.118, 1.401e-6
0.119, 1.402e-6
0.120, 1.404e-6
0.121, 1.406e-6
0.122, 1.408e-6
0.123, 1.409e-6
0.124, 1.411e-6
0.125, 1.412e-6
0.126, 1.414e-6
0.127, 1.416e-6
0.128, 1.418e-6
0.129, 1.419e-6
0.130, 1.421e-6
0.131, 1.422e-6
0.132, 1.424e-6
0.133, 1.426e-6
0.134, 1.428e-6
0.135, 1.429e-6
0.136, 1.431e-6
0.137, 1.432e-6
0.138, 1.434e-6
0.139, 1.436e-6
0.140, 1.438e-6
0.141, 1.439e-6
0.142, 1.441e-6
0.143, 1.442e-6
0.144, 1.444e-6
0.145, 1.445e-6
0.146, 1.448e-6
0.147, 1.449e-6
0.148, 1.451e-6
0.149, 1.452e-6
0.150, 1.454e-6
0.151, 1.455e-6
0.152, 1.457e-6
0.153, 1.458e-6
0.154, 1.460e-6
0.155, 1.462e-6
0.156, 1.464e-6
0.157, 1.465e-6
0.158, 1.467e-6
0.159, 1.468e-6
0.160, 1.470e-6
0.161, 1.471e-6
0.162, 1.473e-6
0.163, 1.474e-6
0.164, 1.476e-6
0.165, 1.478e-6
0.166, 1.480e-6
0.167, 1.481e-6
0.168, 1.483e-6
0.169, 1.484e-6
0.170, 1.486e-6
0.171, 1.487e-6
0.172, 1.489e-6
0.173, 1.490e-6
0.174, 1.492e-6
0.175, 1.493e-6
0.176, 1.495e-6
0.177, 1.496e-6
0.178, 1.498e-6
0.179, 1.499e-6
0.180, 1.501e-6
0.181, 1.502e-6
0.182, 1.504e-6
0.183, 1.505e-6
0.184, 1.507e-6
0.185, 1.508e-6
0.186, 1.510e-6
0.187, 1.511e-6
0.188, 1.513e-6
0.189, 1.514e-6
0.190, 1.516e-6
0.191, 1.517e-6
0.192, 1.519e-6
0.193, 1.520e-6
0.194, 1.522e-6
0.195, 1.523e-6
0.196, 1.525e-6
0.197, 1.526e-6
0.198, 1.528e-6
0.199, 1.529e-6
0.200, 1.531e-6
0.201, 1.532e-6
0.202, 1.534e-6
0.203, 1.535e-6
0.204, 1.537e-6
0.205, 1.538e-6
0.206, 1.540e-6
0.207, 1.541e-6
0.208, 1.543e-6
0.209, 1.544e-6
0.210, 1.546e-6
0.211, 1.547e-6
0.212, 1.548e-6
0.213, 1.549e-6
0.214, 1.551e-6
0.215, 1.552e-6
0.216, 1.554e-6
0.217, 1.555e-6
0.218, 1.557e-6
0.219, 1.558e-6
0.220, 1.560e-6
0.221, 1.561e-6
0.222, 1.562e-6
0.223, 1.564e-6
0.224, 1.565e-6
0.225, 1.566e-6
0.226, 1.568e-6
0.227, 1.569e-6
0.228, 1.571e-6
0.229, 1.572e-6
0.230, 1.574e-6
0.231, 1.575e-6
0.232, 1.577e-6
0.233, 1.578e-6
0.234, 1.579e-6
0.235, 1.580e-6
0.236, 1.582e-6
0.237, 1.583e-6
0.238, 1.585e-6
0.239, 1.586e-6
0.240, 1.588e-6
0.241, 1.588e-6
0.242, 1.590e-6
0.243, 1.591e-6
0.244, 1.593e-6
0.245, 1.594e-6
0.246, 1.596e-6
0.247, 1.597e-6
0.248, 1.598e-6
0.249, 1.599e-6
0.250, 1.601e-6
0.251, 1.602e-6
0.252, 1.604e-6
0.253, 1.605e-6
0.254, 1.607e-6
0.255, 1.608e-6
0.256, 1.609e-6
0.257, 1.610e-6
0.258, 1.612e-6
0.259, 1.613e-6
0.260, 1.614e-6
0.261, 1.616e-6
0.262, 1.617e-6
0.263, 1.618e-6
0.264, 1.620e-6
0.265, 1.621e-6
0.266, 1.622e-6
0.267, 1.623e-6
0.268, 1.625e-6
0.269, 1.626e-6
0.270, 1.628e-6
0.271, 1.629e-6
0.272, 1.630e-6
0.273, 1.631e-6
0.274, 1.633e-6
0.275, 1.634e-6
0.276, 1.636e-6
0.277, 1.637e-6
0.278, 1.638e-6
0.279, 1.639e-6
0.280, 1.641e-6
0.281, 1.642e-6
0.282, 1.643e-6
0.283, 1.644e-6
0.284, 1.646e-6
0.285, 1.647e-6
0.286, 1.648e-6
0.287, 1.649e-6
0.288, 1.651e-6
0.289, 1.652e-6
0.290, 1.654e-6
0.291, 1.655e-6
0.292, 1.656e-6
0.293, 1.657e-6
0.294, 1.659e-6
0.295, 1.660e-6
0.296, 1.661e-6
0.297, 1.662e-6
0.298, 1.664e-6
0.299, 1.665e-6
0.300, 1.666e-6
0.301, 1.667e-6
0.302, 1.669e-6
0.303, 1.670e-6
0.304, 1.671e-6
0.305, 1.672e-6
0.306, 1.674e-6
0.307, 1.675e-6
0.308, 1.676e-6
0.309, 1.677e-6
0.310, 1.679e-6
0.311, 1.680e-6
0.312, 1.681e-6
0.313, 1.682e-6
0.314, 1.684e-6
0.315, 1.685e-6
0.316, 1.687e-6
0.317, 1.687e-6
0.318, 1.689e-6
0.319, 1.690e-6
0.320, 1.692e-6
0.321, 1.692e-6
0.322, 1.694e-6
0.323, 1.695e-6
0.324, 1.696e-6
0.325, 1.697e-6
0.326, 1.699e-6
0.327, 1.700e-6
0.328, 1.702e-6
0.329, 1.702e-6
0.330, 1.704e-6
0.331, 1.705e-6
0.332, 1.707e-6
0.333, 1.707e-6
0.334, 1.709e-6
0.335, 1.710e-6
0.336, 1.711e-6
0.337, 1.712e-6
0.338, 1.714e-6
0.339, 1.715e-6
0.340, 1.716e-6
0.341, 1.717e-6
0.342, 1.719e-6
0.343, 1.719e-6
0.344, 1.721e-6
0.345, 1.722e-6
0.346, 1.724e-6
0.347, 1.724e-6
0.348, 1.726e-6
0.349, 1.727e-6
0.350, 1.728e-6
0.351, 1.729e-6
0.352, 1.731e-6
0.353, 1.731e-6
0.354, 1.733e-6
0.355, 1.734e-6
0.356, 1.735e-6
0.357, 1.736e-6
0.358, 1.738e-6
0.359, 1.739e-6
0.360, 1.740e-6
0.361, 1.741e-6
0.362, 1.742e-6
0.363, 1.743e-6
0.364, 1.745e-6
0.365, 1.746e-6
0.366, 1.747e-6
0.367, 1.748e-6
0.368, 1.750e-6
0.369, 1.750e-6
0.370, 1.752e-6
0.371, 1.753e-6
0.372, 1.754e-6
0.373, 1.755e-6
0.374, 1.756e-6
0.375, 1.757e-6
0.376, 1.759e-6
0.377, 1.759e-6
0.378, 1.761e-6
0.379, 1.762e-6
0.380, 1.763e-6
0.381, 1.764e-6
0.382, 1.766e-6
0.383, 1.767e-6
0.384, 1.768e-6
0.385, 1.769e-6
0.386, 1.770e-6
0.387, 1.771e-6
0.388, 1.772e-6
0.389, 1.773e-6
0.390, 1.775e-6
0.391, 1.775e-6
0.392, 1.777e-6
0.393, 1.778e-6
0.394, 1.779e-6
0.395, 1.780e-6
0.396, 1.782e-6
0.397, 1.782e-6
0.398, 1.784e-6
0.399, 1.785e-6
0.400, 1.786e-6
0.401, 1.787e-6
0.402, 1.789e-6
0.403, 1.789e-6
0.404, 1.791e-6
0.405, 1.791e-6
0.406, 1.793e-6
0.407, 1.793e-6
0.408, 1.795e-6
0.409, 1.796e-6
0.410, 1.797e-6
0.411, 1.798e-6
0.412, 1.800e-6
0.413, 1.800e-6
0.414, 1.802e-6
0.415, 1.803e-6
0.416, 1.804e-6
0.417, 1.805e-6
0.418, 1.806e-6
0.419, 1.807e-6
0.420, 1.808e-6
0.421, 1.809e-6
0.422, 1.811e-6
0.423, 1.811e-6
0.424, 1.813e-6
0.425, 1.814e-6
0.426, 1.815e-6
0.427, 1.816e-6
0.428, 1.818e-6
0.429, 1.818e-6
0.430, 1.820e-6
0.431, 1.821e-6
0.432, 1.822e-6
0.433, 1.823e-6
0.434, 1.825e-6
0.435, 1.825e-6
0.436, 1.827e-6
0.437, 1.828e-6
0.438, 1.829e-6
0.439, 1.830e-6
0.440, 1.832e-6
0.441, 1.832e-6
0.442, 1.834e-6
0.443, 1.834e-6
0.444, 1.836e-6
0.445, 1.837e-6
0.446, 1.838e-6
0.447, 1.839e-6
0.448, 1.841e-6
0.449, 1.842e-6
0.450, 1.843e-6
0.451, 1.844e-6
0.452, 1.845e-6
0.453, 1.846e-6
0.454, 1.848e-6
0.455, 1.849e-6
0.456, 1.851e-6
0.457, 1.852e-6
0.458, 1.853e-6
0.459, 1.854e-6
0.460, 1.856e-6
0.461, 1.857e-6
0.462, 1.858e-6
0.463, 1.859e-6
0.464, 1.861e-6
0.465, 1.861e-6
0.466, 1.863e-6
0.467, 1.864e-6
0.468, 1.865e-6
0.469, 1.866e-6
0.470, 1.868e-6
0.471, 1.869e-6
0.472, 1.870e-6
0.473, 1.871e-6
0.474, 1.873e-6
0.475, 1.874e-6
0.476, 1.875e-6
0.477, 1.876e-6
0.478, 1.878e-6
0.479, 1.879e-6
0.480, 1.880e-6
0.481, 1.881e-6
0.482, 1.883e-6
0.483, 1.884e-6
0.484, 1.885e-6
0.485, 1.887e-6
0.486, 1.888e-6
0.487, 1.889e-6
0.488, 1.891e-6
0.489, 1.892e-6
0.490, 1.893e-6
0.491, 1.894e-6
0.492, 1.896e-6
0.493, 1.897e-6
0.494, 1.899e-6
0.495, 1.900e-6
0.496, 1.902e-6
0.497, 1.902e-6
0.498, 1.905e-6
0.499, 1.905e-6