File: data/raw_data/uvvis/170929 Gr-NH2 production/0min.csv
0min.csv;;Kemi1\Kemi01;29-09-2017 13:31:30;GENESYS 10S UV-Vis;2L9T161212;4.006
nm;A
200;2.9795
201;3.0192
202;3.087
203;3.1775
204;3.2028
205;3.2239
206;3.2474
207;3.2285
208;3.2082
209;3.2178
210;3.2006
211;3.1828
212;3.1971
213;3.1926
214;3.203
215;3.1699
216;3.1714
217;3.1704
218;3.1743
219;3.1782
220;3.1701
221;3.1664
222;3.1799
223;3.1884
224;3.1868
225;3.1783
226;3.1989
227;3.2118
228;3.2293
229;3.2401
230;3.235
231;3.2147
232;3.204
233;3.1942
234;3.1844
235;3.1782
236;3.1776
237;3.1692
238;3.1547
239;3.1533
240;3.1556
241;3.1711
242;3.1746
243;3.1781
244;3.1618
245;3.1503
246;3.1568
247;3.1701
248;3.1723
249;3.1611
250;3.1541
251;3.1431
252;3.161
253;3.1669
254;3.1519
255;3.151
256;3.1625
257;3.1666
258;3.1793
259;3.2005
260;3.2226
261;3.222
262;3.2189
263;3.1695
264;3.1708
265;3.1653
266;3.1425
267;3.1548
268;3.1347
269;3.124
270;3.1213
271;3.132
272;3.1423
273;3.1349
274;3.1279
275;3.1134
276;3.129
277;3.1308
278;3.1193
279;3.1093
280;3.1094
281;3.1167
282;3.125
283;3.1306
284;3.1389
285;3.1538
286;3.1765
287;3.1907
288;3.1889
289;3.1782
290;3.1873
291;3.1952
292;3.1923
293;3.1968
294;3.2245
295;3.2499
296;3.2904
297;3.3309
298;3.3837
299;3.4042
300;3.4438
301;3.451
302;3.4993
303;3.5026
304;3.4794
305;3.4822
306;3.4741
307;3.4741
308;3.4591
309;3.4534
310;3.4282
311;3.4015
312;3.3741
313;3.3317
314;3.3227
315;3.312
316;3.2663
317;3.2076
318;3.1839
319;3.17
320;3.1399
321;3.1134
322;3.0969
323;3.1035
324;3.1112
325;3.0716
326;3.0479
327;3.0143
328;2.9921
329;2.9823
330;2.9677
331;2.9627
332;2.9552
333;2.9614
334;2.9463
335;2.9284
336;2.9233
337;2.9093
338;2.9086
339;2.9009
340;2.8838
341;2.8758
342;2.874
343;2.8799
344;2.8912
345;2.8938
346;2.8745
347;2.8551
348;2.8381
349;2.8358
350;2.8317
351;2.8316
352;2.8186
353;2.8345
354;2.8355
355;2.8301
356;2.823
357;2.8239
358;2.7944
359;2.7375
360;2.6858
361;2.6072
362;2.4923
363;2.3287
364;2.1258
365;1.9387
366;1.7664
367;1.5951
368;1.4311
369;1.273
370;1.1263
371;1.001
372;0.8929
373;0.787
374;0.6967
375;0.6209
376;0.5535
377;0.4999
378;0.4585
379;0.4176
380;0.3784
381;0.346
382;0.3192
383;0.296
384;0.2759
385;0.2588
386;0.244
387;0.2311
388;0.2202
389;0.211
390;0.2027
391;0.1948
392;0.1892
393;0.1835
394;0.1782
395;0.1743
396;0.1704
397;0.1667
398;0.1634
399;0.1608
400;0.1585
401;0.1565
402;0.1545
403;0.1528
404;0.1512
405;0.1499
406;0.1488
407;0.1476
408;0.1467
409;0.146
410;0.1448
411;0.1443
412;0.1437
413;0.143
414;0.1425
415;0.142
416;0.1416
417;0.1413
418;0.1406
419;0.1402
420;0.1398
421;0.1393
422;0.1389
423;0.1386
424;0.138
425;0.1376
426;0.1372
427;0.1366
428;0.1361
429;0.1356
430;0.1347
431;0.1342
432;0.1334
433;0.1327
434;0.132
435;0.1315
436;0.1306
437;0.1298
438;0.129
439;0.1283
440;0.1273
441;0.1267
442;0.1258
443;0.125
444;0.1241
445;0.1233
446;0.1222
447;0.1216
448;0.121
449;0.1201
450;0.1194
451;0.1185
452;0.1176
453;0.1168
454;0.1159
455;0.1151
456;0.1142
457;0.1133
458;0.1124
459;0.1116
460;0.1108
461;0.11
462;0.1089
463;0.108
464;0.1074
465;0.1061
466;0.1053
467;0.1046
468;0.1037
469;0.1027
470;0.1023
471;0.1014
472;0.1008
473;0.0997
474;0.099
475;0.0986
476;0.0972
477;0.0968
478;0.096
479;0.0953
480;0.0948
481;0.0939
482;0.0929
483;0.0922
484;0.0918
485;0.0911
486;0.0904
487;0.0898
488;0.0891
489;0.0885
490;0.0876
491;0.0867
492;0.0861
493;0.0854
494;0.0846
495;0.084
496;0.0834
497;0.0827
498;0.0818
499;0.0812
500;0.0807
501;0.0793
502;0.079
503;0.0781
504;0.0775
505;0.0763
506;0.0755
507;0.0752
508;0.0741
509;0.0736
510;0.0725
511;0.0716
512;0.0711
513;0.0702
514;0.0697
515;0.069
516;0.0678
517;0.067
518;0.0661
519;0.0654
520;0.0648
521;0.0639
522;0.0631
523;0.0621
524;0.0617
525;0.0603
526;0.0596
527;0.0587
528;0.0581
529;0.0575
530;0.0567
531;0.0559
532;0.0551
533;0.0541
534;0.0532
535;0.0527
536;0.052
537;0.051
538;0.0502
539;0.0492
540;0.0484
541;0.0475
542;0.0469
543;0.046
544;0.0454
545;0.0442
546;0.0434
547;0.0425
548;0.0419
549;0.041
550;0.0404
551;0.04
552;0.039
553;0.0379
554;0.0369
555;0.0365
556;0.0357
557;0.0351
558;0.0343
559;0.0336
560;0.0331
561;0.0324
562;0.0321
563;0.0312
564;0.0305
565;0.0302
566;0.0297
567;0.0291
568;0.0285
569;0.0282
570;0.0274
571;0.0273
572;0.0266
573;0.0261
574;0.0258
575;0.0252
576;0.0251
577;0.0243
578;0.0239
579;0.0237
580;0.0235
581;0.0225
582;0.0227
583;0.0219
584;0.0218
585;0.0216
586;0.0212
587;0.0211
588;0.0207
589;0.0207
590;0.02
591;0.0202
592;0.0198
593;0.0195
594;0.019
595;0.0189
596;0.0187
597;0.0185
598;0.0183
599;0.0182
600;0.0177
601;0.0177
602;0.0175
603;0.0169
604;0.017
605;0.0169
606;0.0165
607;0.0165
608;0.0165
609;0.0162
610;0.0162
611;0.0154
612;0.016
613;0.0158
614;0.0156
615;0.0151
616;0.0155
617;0.0158
618;0.0149
619;0.0145
620;0.0146
621;0.0148
622;0.0144
623;0.0144
624;0.0138
625;0.0141
626;0.0132
627;0.0138
628;0.013
629;0.0136
630;0.0134
631;0.0133
632;0.0137
633;0.013
634;0.0127
635;0.013
636;0.013
637;0.0127
638;0.0119
639;0.0127
640;0.0122
641;0.0126
642;0.0122
643;0.0126
644;0.012
645;0.0121
646;0.0126
647;0.0119
648;0.0115
649;0.0113
650;0.0118
651;0.0117
652;0.0119
653;0.0115
654;0.0117
655;0.0119
656;0.0112
657;0.0114
658;0.0112
659;0.0114
660;0.0114
661;0.0109
662;0.0111
663;0.0106
664;0.0101
665;0.0114
666;0.0101
667;0.0102
668;0.0106
669;0.0103
670;0.01
671;0.0104
672;0.0102
673;0.0103
674;0.0102
675;0.0104
676;0.0104
677;0.0099
678;0.0099
679;0.0094
680;0.0099
681;0.0102
682;0.0104
683;0.0102
684;0.0098
685;0.0099
686;0.0098
687;0.0096
688;0.01
689;0.0098
690;0.0098
691;0.0095
692;0.0101
693;0.0095
694;0.01
695;0.0095
696;0.0092
697;0.0089
698;0.0098
699;0.0098
700;0.0089
701;0.0094
702;0.0093
703;0.009
704;0.0094
705;0.0095
706;0.0089
707;0.0095
708;0.0086
709;0.01
710;0.0091
711;0.0092
712;0.0091
713;0.0087
714;0.0096
715;0.009
716;0.0085
717;0.0087
718;0.0087
719;0.0084
720;0.0081
721;0.0085
722;0.0084
723;0.0093
724;0.0087
725;0.0084
726;0.0087
727;0.0092
728;0.0081
729;0.0089
730;0.0082
731;0.0089
732;0.008
733;0.0091
734;0.0084
735;0.0082
736;0.0086
737;0.0083
738;0.0083
739;0.0088
740;0.0096
741;0.0081
742;0.0088
743;0.0086
744;0.0079
745;0.0079
746;0.0081
747;0.0088
748;0.0084
749;0.0084
750;0.0078
751;0.0081
752;0.0083
753;0.0083
754;0.0079
755;0.0079
756;0.0082
757;0.0079
758;0.0076
759;0.0078
760;0.0088
761;0.0084
762;0.0076
763;0.008
764;0.0082
765;0.0076
766;0.0074
767;0.0076
768;0.0077
769;0.0068
770;0.0078
771;0.0073
772;0.0069
773;0.007
774;0.0074
775;0.0079
776;0.008
777;0.0073
778;0.0067
779;0.0071
780;0.007
781;0.0074
782;0.0075
783;0.0076
784;0.007
785;0.0071
786;0.0075
787;0.0077
788;0.0076
789;0.0075
790;0.0068
791;0.0073
792;0.0077
793;0.0068
794;0.0071
795;0.0074
796;0.0075
797;0.0069
798;0.0074
799;0.0069
800;0.0074