File: data/raw_data/uvvis/170929 Gr-NH2 production/40min.csv
40min.csv;;Kemi1\Kemi01;29-09-2017 13:50:22;GENESYS 10S UV-Vis;2L9T161212;4.006
nm;A
200;2.9457
201;2.98
202;3.0676
203;3.1102
204;3.1781
205;3.1873
206;3.215
207;3.1806
208;3.1608
209;3.1767
210;3.1685
211;3.1437
212;3.1419
213;3.132
214;3.132
215;3.1091
216;3.0939
217;3.089
218;3.0835
219;3.0785
220;3.0778
221;3.0785
222;3.0821
223;3.0855
224;3.099
225;3.0874
226;3.1076
227;3.1231
228;3.1478
229;3.156
230;3.1525
231;3.1391
232;3.1272
233;3.1098
234;3.1132
235;3.1103
236;3.1041
237;3.0982
238;3.0887
239;3.0892
240;3.0863
241;3.0966
242;3.1109
243;3.1085
244;3.0952
245;3.0782
246;3.0769
247;3.0916
248;3.0921
249;3.081
250;3.0616
251;3.0498
252;3.0491
253;3.092
254;3.0283
255;3.0104
256;3.0083
257;3.0073
258;3.0124
259;3.0181
260;3.0306
261;3.0214
262;2.9998
263;2.9818
264;2.9589
265;2.9594
266;2.9483
267;2.9413
268;2.9339
269;2.9205
270;2.9193
271;2.924
272;2.9277
273;2.931
274;2.9106
275;2.905
276;2.9061
277;2.9069
278;2.9054
279;2.8993
280;2.891
281;2.9017
282;2.9115
283;2.9166
284;2.9229
285;2.9298
286;2.9424
287;2.9483
288;2.9595
289;2.9466
290;2.9514
291;2.9614
292;2.9615
293;2.9644
294;2.9798
295;3.0009
296;3.0211
297;3.0534
298;3.0766
299;3.0914
300;3.0935
301;3.1115
302;3.0532
303;2.9827
304;2.9135
305;2.8387
306;2.7888
307;2.7552
308;2.724
309;2.7109
310;2.6997
311;2.6971
312;2.6972
313;2.7023
314;2.7158
315;2.7341
316;2.7416
317;2.7539
318;2.7702
319;2.7888
320;2.803
321;2.805
322;2.8226
323;2.8451
324;2.8628
325;2.8515
326;2.8522
327;2.8483
328;2.8384
329;2.8342
330;2.832
331;2.8346
332;2.834
333;2.8428
334;2.8356
335;2.8277
336;2.8154
337;2.8104
338;2.8071
339;2.8017
340;2.7916
341;2.794
342;2.7952
343;2.793
344;2.8061
345;2.807
346;2.7946
347;2.7724
348;2.7586
349;2.7573
350;2.7516
351;2.7496
352;2.7489
353;2.7499
354;2.7506
355;2.7446
356;2.7298
357;2.7266
358;2.6907
359;2.6205
360;2.5503
361;2.4449
362;2.32
363;2.1511
364;1.9498
365;1.7645
366;1.5961
367;1.4312
368;1.2754
369;1.1263
370;0.9882
371;0.8719
372;0.7719
373;0.6741
374;0.5913
375;0.5231
376;0.4631
377;0.4151
378;0.3784
379;0.343
380;0.3094
381;0.2819
382;0.2599
383;0.2405
384;0.2247
385;0.2113
386;0.1995
387;0.1899
388;0.1816
389;0.1744
390;0.1682
391;0.1623
392;0.1584
393;0.1539
394;0.1497
395;0.1467
396;0.1436
397;0.1407
398;0.1379
399;0.1354
400;0.1335
401;0.1316
402;0.1298
403;0.1278
404;0.1261
405;0.1246
406;0.1231
407;0.1215
408;0.1201
409;0.1189
410;0.1175
411;0.1165
412;0.1155
413;0.1143
414;0.1133
415;0.1123
416;0.1111
417;0.1105
418;0.1096
419;0.1084
420;0.1076
421;0.1063
422;0.1055
423;0.1048
424;0.1039
425;0.103
426;0.1026
427;0.1019
428;0.101
429;0.1002
430;0.099
431;0.0981
432;0.0973
433;0.0964
434;0.0952
435;0.095
436;0.0944
437;0.0934
438;0.0927
439;0.0917
440;0.091
441;0.0903
442;0.0895
443;0.0886
444;0.0877
445;0.0869
446;0.0862
447;0.0855
448;0.0846
449;0.0838
450;0.0829
451;0.0822
452;0.0814
453;0.0806
454;0.0798
455;0.079
456;0.0778
457;0.0772
458;0.0763
459;0.0758
460;0.075
461;0.0745
462;0.0735
463;0.0723
464;0.0716
465;0.0709
466;0.07
467;0.0693
468;0.0684
469;0.0674
470;0.0665
471;0.066
472;0.0653
473;0.0641
474;0.0631
475;0.0623
476;0.0613
477;0.0609
478;0.0598
479;0.0592
480;0.0584
481;0.0574
482;0.0563
483;0.0552
484;0.0547
485;0.054
486;0.0534
487;0.0524
488;0.0517
489;0.0515
490;0.0503
491;0.0494
492;0.0485
493;0.0482
494;0.0466
495;0.0464
496;0.0454
497;0.0449
498;0.0442
499;0.0433
500;0.0428
501;0.0419
502;0.041
503;0.0406
504;0.0398
505;0.0393
506;0.0386
507;0.0376
508;0.037
509;0.0365
510;0.036
511;0.0355
512;0.035
513;0.034
514;0.0332
515;0.0327
516;0.0326
517;0.0318
518;0.0316
519;0.0306
520;0.0305
521;0.0294
522;0.0291
523;0.0289
524;0.0283
525;0.0278
526;0.0274
527;0.0269
528;0.0263
529;0.0259
530;0.0256
531;0.0252
532;0.0246
533;0.0243
534;0.0238
535;0.0237
536;0.0228
537;0.0229
538;0.0225
539;0.0221
540;0.0217
541;0.0215
542;0.0209
543;0.021
544;0.0201
545;0.0198
546;0.0195
547;0.0193
548;0.0195
549;0.0189
550;0.0182
551;0.0178
552;0.0185
553;0.0176
554;0.0175
555;0.0177
556;0.0173
557;0.0167
558;0.0165
559;0.0163
560;0.0157
561;0.0158
562;0.0167
563;0.0151
564;0.0149
565;0.0159
566;0.0155
567;0.0149
568;0.0144
569;0.0148
570;0.014
571;0.014
572;0.0135
573;0.014
574;0.0138
575;0.0133
576;0.0137
577;0.0141
578;0.0135
579;0.0128
580;0.0128
581;0.013
582;0.012
583;0.012
584;0.0118
585;0.0125
586;0.0118
587;0.0115
588;0.0116
589;0.0115
590;0.012
591;0.0112
592;0.0116
593;0.0116
594;0.0107
595;0.0107
596;0.0119
597;0.0106
598;0.0105
599;0.0105
600;0.0103
601;0.0108
602;0.0105
603;0.0101
604;0.0098
605;0.0101
606;0.01
607;0.0094
608;0.0098
609;0.0096
610;0.0094
611;0.0092
612;0.0087
613;0.0096
614;0.0093
615;0.0096
616;0.0097
617;0.0088
618;0.0093
619;0.0084
620;0.0081
621;0.0084
622;0.008
623;0.0084
624;0.0081
625;0.0089
626;0.008
627;0.0087
628;0.0079
629;0.0074
630;0.0084
631;0.0084
632;0.0079
633;0.0074
634;0.0082
635;0.0077
636;0.0073
637;0.0077
638;0.0071
639;0.0073
640;0.0071
641;0.0074
642;0.0066
643;0.0061
644;0.007
645;0.0064
646;0.0065
647;0.0066
648;0.0072
649;0.0062
650;0.0065
651;0.0066
652;0.0064
653;0.0064
654;0.0065
655;0.0054
656;0.0074
657;0.0064
658;0.0066
659;0.0059
660;0.0066
661;0.0059
662;0.0056
663;0.0059
664;0.0056
665;0.0058
666;0.0059
667;0.0061
668;0.006
669;0.0065
670;0.0058
671;0.0072
672;0.0066
673;0.0069
674;0.0057
675;0.0061
676;0.006
677;0.006
678;0.0069
679;0.0061
680;0.0058
681;0.006
682;0.0057
683;0.0058
684;0.0056
685;0.0067
686;0.0065
687;0.0057
688;0.0058
689;0.006
690;0.0059
691;0.0055
692;0.0054
693;0.0069
694;0.0054
695;0.0052
696;0.0054
697;0.0061
698;0.0057
699;0.0054
700;0.0055
701;0.0049
702;0.0055
703;0.0044
704;0.0051
705;0.0043
706;0.0041
707;0.0049
708;0.0045
709;0.005
710;0.0048
711;0.0047
712;0.0045
713;0.0045
714;0.0045
715;0.0041
716;0.0045
717;0.0045
718;0.0039
719;0.0042
720;0.0048
721;0.0037
722;0.0041
723;0.0042
724;0.0046
725;0.0038
726;0.0044
727;0.0046
728;0.0044
729;0.0046
730;0.0042
731;0.0041
732;0.0039
733;0.0049
734;0.0043
735;0.0041
736;0.0031
737;0.0058
738;0.0041
739;0.005
740;0.0051
741;0.004
742;0.0045
743;0.0038
744;0.0043
745;0.0052
746;0.0045
747;0.0041
748;0.0044
749;0.0035
750;0.0038
751;0.0041
752;0.0039
753;0.0036
754;0.0037
755;0.0045
756;0.004
757;0.0038
758;0.0035
759;0.0036
760;0.0037
761;0.0039
762;0.0036
763;0.0035
764;0.0034
765;0.0033
766;0.0028
767;0.0031
768;0.0035
769;0.0034
770;0.0037
771;0.0036
772;0.0038
773;0.0045
774;0.0028
775;0.0026
776;0.0035
777;0.0036
778;0.0034
779;0.0032
780;0.0035
781;0.0036
782;0.0025
783;0.0021
784;0.0029
785;0.0035
786;0.0025
787;0.0028
788;0.0029
789;0.0036
790;0.0035
791;0.0026
792;0.0036
793;0.0032
794;0.0029
795;0.0029
796;0.0032
797;0.0029
798;0.0026
799;0.0036
800;0.0048