File: data/raw_data/uvvis/170929 Gr-NH2 production/60min.csv
60min.csv;;Kemi1\Kemi01;29-09-2017 13:59:14;GENESYS 10S UV-Vis;2L9T161212;4.006
nm;A
200;2.97
201;3.0021
202;3.0612
203;3.1197
204;3.1567
205;3.1759
206;3.1916
207;3.1731
208;3.1543
209;3.1609
210;3.1474
211;3.148
212;3.1211
213;3.1299
214;3.1199
215;3.0969
216;3.0748
217;3.063
218;3.0677
219;3.055
220;3.0417
221;3.0515
222;3.0522
223;3.0652
224;3.0765
225;3.0739
226;3.0814
227;3.1029
228;3.1296
229;3.1399
230;3.1373
231;3.1178
232;3.1077
233;3.0939
234;3.0963
235;3.0953
236;3.0905
237;3.0859
238;3.0765
239;3.0771
240;3.0679
241;3.0846
242;3.0895
243;3.0877
244;3.0748
245;3.0583
246;3.0647
247;3.0696
248;3.0689
249;3.0575
250;3.0361
251;3.0213
252;3.0219
253;3.0595
254;2.9988
255;2.9821
256;2.9697
257;2.9639
258;2.9677
259;2.9736
260;2.9746
261;2.9681
262;2.9568
263;2.9238
264;2.9153
265;2.9093
266;2.8884
267;2.8858
268;2.8729
269;2.8623
270;2.8507
271;2.8597
272;2.8632
273;2.8689
274;2.8474
275;2.8404
276;2.8419
277;2.8429
278;2.8412
279;2.8378
280;2.8364
281;2.8444
282;2.8498
283;2.8548
284;2.8517
285;2.8593
286;2.8713
287;2.8847
288;2.8719
289;2.8754
290;2.8783
291;2.8889
292;2.8864
293;2.8938
294;2.9038
295;2.9154
296;2.9248
297;2.9387
298;2.9433
299;2.8878
300;2.7393
301;2.5284
302;2.3364
303;2.166
304;2.0381
305;1.9601
306;1.917
307;1.901
308;1.9049
309;1.9206
310;1.9507
311;1.9935
312;2.0404
313;2.0938
314;2.16
315;2.2218
316;2.2831
317;2.3506
318;2.4219
319;2.4829
320;2.535
321;2.5826
322;2.6345
323;2.6878
324;2.7246
325;2.7393
326;2.7605
327;2.7692
328;2.7731
329;2.7779
330;2.7837
331;2.7917
332;2.7989
333;2.8046
334;2.7991
335;2.7919
336;2.7898
337;2.7812
338;2.7847
339;2.7785
340;2.7689
341;2.7701
342;2.7671
343;2.7699
344;2.7852
345;2.7864
346;2.7723
347;2.7493
348;2.7411
349;2.735
350;2.7334
351;2.729
352;2.7242
353;2.7299
354;2.7234
355;2.7178
356;2.7078
357;2.6905
358;2.649
359;2.5716
360;2.4894
361;2.3736
362;2.244
363;2.0738
364;1.8718
365;1.6883
366;1.5249
367;1.3648
368;1.2135
369;1.0697
370;0.9378
371;0.8259
372;0.7296
373;0.6359
374;0.5574
375;0.4917
376;0.4342
377;0.389
378;0.3545
379;0.3208
380;0.2888
381;0.2634
382;0.2428
383;0.2247
384;0.2096
385;0.1969
386;0.1864
387;0.1768
388;0.1697
389;0.1634
390;0.1574
391;0.1519
392;0.1479
393;0.1438
394;0.14
395;0.1373
396;0.1342
397;0.1315
398;0.1286
399;0.1264
400;0.1246
401;0.1225
402;0.121
403;0.1194
404;0.1173
405;0.1161
406;0.1147
407;0.1131
408;0.1117
409;0.1104
410;0.1093
411;0.1078
412;0.107
413;0.106
414;0.1047
415;0.1038
416;0.1028
417;0.1019
418;0.1011
419;0.0999
420;0.099
421;0.0985
422;0.0974
423;0.0966
424;0.096
425;0.0952
426;0.0938
427;0.0937
428;0.093
429;0.0921
430;0.091
431;0.0902
432;0.0896
433;0.089
434;0.0881
435;0.0875
436;0.0869
437;0.0861
438;0.0852
439;0.0842
440;0.0837
441;0.083
442;0.0824
443;0.0817
444;0.0809
445;0.08
446;0.0792
447;0.0787
448;0.0781
449;0.0773
450;0.0767
451;0.076
452;0.0752
453;0.0746
454;0.0738
455;0.0733
456;0.0723
457;0.072
458;0.0713
459;0.0702
460;0.0697
461;0.0687
462;0.0683
463;0.068
464;0.0673
465;0.0662
466;0.0655
467;0.0649
468;0.0639
469;0.0632
470;0.0631
471;0.0621
472;0.0615
473;0.0605
474;0.0601
475;0.0592
476;0.0584
477;0.0578
478;0.0569
479;0.0557
480;0.0552
481;0.0549
482;0.0537
483;0.0528
484;0.0523
485;0.0516
486;0.0511
487;0.0505
488;0.0499
489;0.0492
490;0.0484
491;0.0475
492;0.047
493;0.0462
494;0.0457
495;0.0449
496;0.0443
497;0.0439
498;0.0425
499;0.0416
500;0.0407
501;0.0403
502;0.0402
503;0.0399
504;0.0388
505;0.0378
506;0.0369
507;0.0379
508;0.0361
509;0.036
510;0.0352
511;0.0339
512;0.0336
513;0.0331
514;0.0327
515;0.0322
516;0.0317
517;0.0302
518;0.03
519;0.0296
520;0.0297
521;0.0294
522;0.028
523;0.0284
524;0.0278
525;0.0273
526;0.0269
527;0.0257
528;0.0261
529;0.0253
530;0.0255
531;0.0251
532;0.0243
533;0.0239
534;0.0237
535;0.0234
536;0.0223
537;0.022
538;0.0216
539;0.0212
540;0.0209
541;0.021
542;0.0205
543;0.0206
544;0.02
545;0.02
546;0.0195
547;0.0186
548;0.0192
549;0.0186
550;0.0179
551;0.0177
552;0.0174
553;0.0168
554;0.017
555;0.0174
556;0.0166
557;0.016
558;0.0162
559;0.016
560;0.016
561;0.0162
562;0.0157
563;0.015
564;0.0155
565;0.0157
566;0.0148
567;0.0145
568;0.0149
569;0.015
570;0.0138
571;0.0135
572;0.0138
573;0.0133
574;0.0141
575;0.0128
576;0.0134
577;0.013
578;0.013
579;0.0129
580;0.0125
581;0.0123
582;0.0138
583;0.0122
584;0.0119
585;0.0121
586;0.0117
587;0.0113
588;0.0112
589;0.0115
590;0.0116
591;0.0116
592;0.0113
593;0.0116
594;0.0116
595;0.0103
596;0.0109
597;0.0119
598;0.0104
599;0.0104
600;0.0095
601;0.0108
602;0.01
603;0.0101
604;0.0097
605;0.0097
606;0.01
607;0.0103
608;0.0099
609;0.0102
610;0.0104
611;0.0095
612;0.0094
613;0.0096
614;0.0096
615;0.0096
616;0.0086
617;0.0088
618;0.009
619;0.009
620;0.0089
621;0.0094
622;0.0087
623;0.0088
624;0.0088
625;0.0084
626;0.0085
627;0.01
628;0.0091
629;0.0081
630;0.008
631;0.0076
632;0.0081
633;0.0082
634;0.0072
635;0.0074
636;0.0071
637;0.0072
638;0.0071
639;0.0071
640;0.0072
641;0.0072
642;0.0069
643;0.0068
644;0.0064
645;0.0072
646;0.0073
647;0.0065
648;0.0072
649;0.0071
650;0.0069
651;0.0061
652;0.0073
653;0.0067
654;0.0066
655;0.0069
656;0.0062
657;0.0064
658;0.0065
659;0.0058
660;0.0069
661;0.0063
662;0.0066
663;0.006
664;0.0057
665;0.0068
666;0.0056
667;0.0062
668;0.0057
669;0.008
670;0.0065
671;0.0064
672;0.0069
673;0.0063
674;0.0071
675;0.0068
676;0.0064
677;0.0067
678;0.0065
679;0.0062
680;0.0062
681;0.0068
682;0.0073
683;0.0069
684;0.0065
685;0.0063
686;0.0057
687;0.0068
688;0.0063
689;0.007
690;0.0058
691;0.0063
692;0.0056
693;0.0071
694;0.0058
695;0.0057
696;0.0061
697;0.0058
698;0.0077
699;0.0064
700;0.0061
701;0.007
702;0.0052
703;0.0049
704;0.0048
705;0.0052
706;0.0051
707;0.0042
708;0.0062
709;0.0051
710;0.0039
711;0.0048
712;0.0051
713;0.004
714;0.0047
715;0.0044
716;0.0047
717;0.0046
718;0.0045
719;0.0042
720;0.0044
721;0.0033
722;0.0043
723;0.0041
724;0.0053
725;0.0043
726;0.0043
727;0.0036
728;0.0055
729;0.0046
730;0.0043
731;0.0048
732;0.0044
733;0.0055
734;0.0058
735;0.0043
736;0.0033
737;0.0055
738;0.004
739;0.0051
740;0.0041
741;0.0042
742;0.005
743;0.0042
744;0.0043
745;0.0038
746;0.0046
747;0.003
748;0.0041
749;0.0034
750;0.0041
751;0.0037
752;0.0039
753;0.0029
754;0.0041
755;0.0041
756;0.0037
757;0.004
758;0.0042
759;0.0039
760;0.0039
761;0.0043
762;0.0034
763;0.0037
764;0.0038
765;0.0039
766;0.0038
767;0.0029
768;0.0037
769;0.0039
770;0.0035
771;0.0039
772;0.0033
773;0.0031
774;0.0029
775;0.0029
776;0.0031
777;0.0032
778;0.004
779;0.0032
780;0.0025
781;0.003
782;0.0035
783;0.0035
784;0.0024
785;0.0036
786;0.004
787;0.0042
788;0.0035
789;0.0034
790;0.0039
791;0.0029
792;0.0039
793;0.0033
794;0.002
795;0.0035
796;0.0039
797;0.0028
798;0.0033
799;0.0036
800;0.0043