File: data/raw_data/ir/2017118_ATR-IR_AEBD/20171128_AEBD.csv
Created as New Dataset;Sample 1471 By Administrator Date tirsdag, november 28 2017
cm-1;%T
4000,00;98,89
3997,00;98,87
3994,00;98,87
3991,00;98,87
3988,00;98,87
3985,00;98,87
3982,00;98,86
3979,00;98,85
3976,00;98,84
3973,00;98,84
3970,00;98,84
3967,00;98,84
3964,00;98,81
3961,00;98,81
3958,00;98,82
3955,00;98,82
3952,00;98,77
3949,00;98,74
3946,00;98,74
3943,00;98,75
3940,00;98,76
3937,00;98,79
3934,00;98,68
3931,00;98,68
3928,00;98,69
3925,00;98,70
3922,00;98,65
3919,00;98,61
3916,00;98,70
3913,00;98,81
3910,00;98,83
3907,00;98,55
3904,00;98,26
3901,00;98,25
3898,00;98,61
3895,00;98,66
3892,00;98,56
3889,00;98,45
3886,00;98,45
3883,00;98,34
3880,00;98,51
3877,00;98,41
3874,00;98,37
3871,00;98,06
3868,00;98,22
3865,00;98,33
3862,00;98,46
3859,00;98,52
3856,00;97,87
3853,00;97,76
3850,00;98,25
3847,00;98,74
3844,00;98,51
3841,00;98,14
3838,00;98,06
3835,00;98,24
3832,00;98,50
3829,00;98,54
3826,00;98,55
3823,00;98,12
3820,00;98,13
3817,00;98,14
3814,00;98,52
3811,00;98,64
3808,00;98,36
3805,00;98,20
3802,00;98,13
3799,00;98,21
3796,00;98,53
3793,00;98,61
3790,00;98,69
3787,00;98,58
3784,00;98,53
3781,00;98,41
3778,00;98,48
3775,00;98,54
3772,00;98,34
3769,00;98,22
3766,00;98,24
3763,00;98,29
3760,00;98,20
3757,00;98,13
3754,00;97,80
3751,00;97,47
3748,00;97,52
3745,00;97,55
3742,00;97,81
3739,00;97,95
3736,00;97,58
3733,00;97,70
3730,00;98,08
3727,00;98,12
3724,00;98,01
3721,00;98,08
3718,00;98,15
3715,00;97,90
3712,00;97,56
3709,00;97,68
3706,00;97,91
3703,00;97,78
3700,00;97,70
3697,00;97,70
3694,00;97,42
3691,00;96,86
3688,00;96,81
3685,00;96,98
3682,00;96,90
3679,00;96,29
3676,00;95,64
3673,00;95,41
3670,00;95,41
3667,00;95,30
3664,00;95,23
3661,00;94,82
3658,00;94,19
3655,00;93,79
3652,00;93,04
3649,00;92,46
3646,00;92,52
3643,00;92,51
3640,00;92,18
3637,00;91,78
3634,00;91,37
3631,00;90,64
3628,00;90,55
3625,00;90,62
3622,00;90,35
3619,00;89,98
3616,00;89,85
3613,00;89,74
3610,00;89,53
3607,00;89,65
3604,00;89,66
3601,00;89,56
3598,00;89,46
3595,00;89,44
3592,00;89,44
3589,00;89,23
3586,00;89,40
3583,00;89,59
3580,00;89,66
3577,00;89,67
3574,00;89,73
3571,00;89,62
3568,00;89,44
3565,00;89,68
3562,00;89,89
3559,00;89,99
3556,00;90,03
3553,00;90,02
3550,00;90,05
3547,00;90,05
3544,00;90,17
3541,00;90,29
3538,00;90,29
3535,00;90,31
3532,00;90,30
3529,00;90,26
3526,00;90,27
3523,00;90,32
3520,00;90,36
3517,00;90,38
3514,00;90,34
3511,00;90,28
3508,00;90,28
3505,00;90,22
3502,00;90,20
3499,00;90,20
3496,00;90,16
3493,00;90,13
3490,00;90,07
3487,00;90,02
3484,00;89,96
3481,00;89,91
3478,00;89,88
3475,00;89,83
3472,00;89,77
3469,00;89,70
3466,00;89,64
3463,00;89,58
3460,00;89,54
3457,00;89,50
3454,00;89,46
3451,00;89,38
3448,00;89,28
3445,00;89,24
3442,00;89,22
3439,00;89,18
3436,00;89,12
3433,00;89,06
3430,00;89,01
3427,00;88,99
3424,00;88,94
3421,00;88,89
3418,00;88,88
3415,00;88,85
3412,00;88,81
3409,00;88,79
3406,00;88,77
3403,00;88,75
3400,00;88,73
3397,00;88,73
3394,00;88,71
3391,00;88,70
3388,00;88,70
3385,00;88,67
3382,00;88,61
3379,00;88,57
3376,00;88,52
3373,00;88,48
3370,00;88,45
3367,00;88,44
3364,00;88,50
3361,00;88,56
3358,00;88,63
3355,00;88,70
3352,00;88,76
3349,00;88,82
3346,00;88,88
3343,00;88,88
3340,00;88,88
3337,00;88,88
3334,00;88,89
3331,00;88,86
3328,00;88,82
3325,00;88,75
3322,00;88,67
3319,00;88,55
3316,00;88,38
3313,00;88,16
3310,00;87,86
3307,00;87,49
3304,00;87,06
3301,00;86,54
3298,00;85,88
3295,00;85,10
3292,00;84,18
3289,00;83,22
3286,00;82,19
3283,00;81,17
3280,00;80,23
3277,00;79,43
3274,00;78,83
3271,00;78,47
3268,00;78,37
3265,00;78,49
3262,00;78,76
3259,00;79,15
3256,00;79,59
3253,00;80,03
3250,00;80,43
3247,00;80,79
3244,00;81,17
3241,00;81,58
3238,00;82,02
3235,00;82,50
3232,00;82,98
3229,00;83,42
3226,00;83,74
3223,00;83,90
3220,00;83,90
3217,00;83,74
3214,00;83,40
3211,00;83,02
3208,00;82,75
3205,00;82,73
3202,00;82,99
3199,00;83,49
3196,00;84,15
3193,00;84,83
3190,00;85,45
3187,00;85,95
3184,00;86,32
3181,00;86,56
3178,00;86,74
3175,00;86,84
3172,00;86,90
3169,00;86,92
3166,00;86,95
3163,00;87,05
3160,00;87,29
3157,00;87,70
3154,00;88,18
3151,00;88,65
3148,00;89,07
3145,00;89,41
3142,00;89,67
3139,00;89,87
3136,00;90,04
3133,00;90,16
3130,00;90,22
3127,00;90,19
3124,00;90,01
3121,00;89,65
3118,00;89,07
3115,00;88,34
3112,00;87,76
3109,00;87,78
3106,00;88,56
3103,00;89,59
3100,00;90,39
3097,00;90,94
3094,00;91,32
3091,00;91,58
3088,00;91,77
3085,00;91,91
3082,00;91,95
3079,00;91,99
3076,00;92,14
3073,00;92,33
3070,00;92,45
3067,00;92,56
3064,00;92,70
3061,00;92,81
3058,00;92,87
3055,00;92,91
3052,00;92,93
3049,00;92,94
3046,00;92,94
3043,00;92,86
3040,00;92,84
3037,00;92,98
3034,00;93,15
3031,00;93,28
3028,00;93,35
3025,00;93,39
3022,00;93,39
3019,00;93,42
3016,00;93,45
3013,00;93,47
3010,00;93,43
3007,00;93,34
3004,00;93,29
3001,00;93,28
2998,00;93,30
2995,00;93,30
2992,00;93,31
2989,00;93,30
2986,00;93,32
2983,00;93,41
2980,00;93,50
2977,00;93,60
2974,00;93,71
2971,00;93,84
2968,00;93,97
2965,00;94,08
2962,00;94,15
2959,00;94,17
2956,00;94,16
2953,00;94,17
2950,00;94,24
2947,00;94,33
2944,00;94,42
2941,00;94,51
2938,00;94,61
2935,00;94,70
2932,00;94,79
2929,00;94,87
2926,00;94,95
2923,00;95,03
2920,00;95,07
2917,00;95,03
2914,00;94,98
2911,00;94,95
2908,00;94,92
2905,00;94,91
2902,00;94,93
2899,00;94,94
2896,00;94,96
2893,00;94,98
2890,00;95,00
2887,00;95,02
2884,00;95,04
2881,00;95,05
2878,00;95,06
2875,00;95,09
2872,00;95,12
2869,00;95,14
2866,00;95,16
2863,00;95,22
2860,00;95,30
2857,00;95,38
2854,00;95,45
2851,00;95,46
2848,00;95,42
2845,00;95,37
2842,00;95,33
2839,00;95,30
2836,00;95,29
2833,00;95,28
2830,00;95,28
2827,00;95,28
2824,00;95,29
2821,00;95,33
2818,00;95,36
2815,00;95,38
2812,00;95,38
2809,00;95,38
2806,00;95,36
2803,00;95,34
2800,00;95,35
2797,00;95,38
2794,00;95,40
2791,00;95,40
2788,00;95,37
2785,00;95,36
2782,00;95,38
2779,00;95,39
2776,00;95,40
2773,00;95,41
2770,00;95,41
2767,00;95,42
2764,00;95,43
2761,00;95,42
2758,00;95,43
2755,00;95,44
2752,00;95,46
2749,00;95,48
2746,00;95,50
2743,00;95,51
2740,00;95,52
2737,00;95,52
2734,00;95,53
2731,00;95,55
2728,00;95,58
2725,00;95,60
2722,00;95,62
2719,00;95,64
2716,00;95,66
2713,00;95,68
2710,00;95,69
2707,00;95,70
2704,00;95,71
2701,00;95,72
2698,00;95,74
2695,00;95,74
2692,00;95,73
2689,00;95,74
2686,00;95,75
2683,00;95,73
2680,00;95,71
2677,00;95,67
2674,00;95,64
2671,00;95,59
2668,00;95,54
2665,00;95,50
2662,00;95,44
2659,00;95,41
2656,00;95,40
2653,00;95,41
2650,00;95,40
2647,00;95,41
2644,00;95,42
2641,00;95,41
2638,00;95,41
2635,00;95,45
2632,00;95,52
2629,00;95,59
2626,00;95,63
2623,00;95,68
2620,00;95,73
2617,00;95,77
2614,00;95,79
2611,00;95,80
2608,00;95,78
2605,00;95,79
2602,00;95,80
2599,00;95,83
2596,00;95,86
2593,00;95,88
2590,00;95,88
2587,00;95,89
2584,00;95,93
2581,00;95,95
2578,00;95,97
2575,00;96,01
2572,00;96,02
2569,00;96,03
2566,00;96,03
2563,00;96,04
2560,00;96,03
2557,00;96,02
2554,00;96,01
2551,00;96,03
2548,00;96,07
2545,00;96,08
2542,00;96,07
2539,00;96,08
2536,00;96,09
2533,00;96,15
2530,00;96,16
2527,00;96,20
2524,00;96,23
2521,00;96,26
2518,00;96,26
2515,00;96,27
2512,00;96,29
2509,00;96,30
2506,00;96,32
2503,00;96,29
2500,00;96,28
2497,00;96,27
2494,00;96,26
2491,00;96,28
2488,00;96,33
2485,00;96,35
2482,00;96,36
2479,00;96,34
2476,00;96,34
2473,00;96,36
2470,00;96,37
2467,00;96,33
2464,00;96,29
2461,00;96,27
2458,00;96,25
2455,00;96,20
2452,00;96,18
2449,00;96,18
2446,00;96,17
2443,00;96,16
2440,00;96,16
2437,00;96,17
2434,00;96,19
2431,00;96,21
2428,00;96,24
2425,00;96,27
2422,00;96,30
2419,00;96,30
2416,00;96,30
2413,00;96,30
2410,00;96,26
2407,00;96,28
2404,00;96,34
2401,00;96,35
2398,00;96,36
2395,00;96,37
2392,00;96,37
2389,00;96,37
2386,00;96,35
2383,00;96,31
2380,00;96,14
2377,00;96,86
2374,00;96,97
2371,00;97,01
2368,00;97,06
2365,00;97,09
2362,00;97,14
2359,00;97,25
2356,00;97,38
2353,00;97,25
2350,00;97,15
2347,00;96,87
2344,00;96,64
2341,00;96,98
2338,00;96,99
2335,00;97,04
2332,00;96,91
2329,00;96,66
2326,00;96,56
2323,00;96,28
2320,00;96,23
2317,00;96,19
2314,00;96,01
2311,00;95,81
2308,00;95,66
2305,00;95,41
2302,00;94,99
2299,00;94,32
2296,00;93,03
2293,00;90,14
2290,00;84,31
2287,00;78,06
2284,00;77,76
2281,00;82,59
2278,00;87,46
2275,00;90,47
2272,00;92,12
2269,00;93,09
2266,00;93,79
2263,00;94,25
2260,00;94,50
2257,00;94,69
2254,00;94,87
2251,00;94,95
2248,00;94,99
2245,00;95,13
2242,00;95,24
2239,00;95,26
2236,00;95,32
2233,00;95,34
2230,00;95,37
2227,00;95,41
2224,00;95,49
2221,00;95,52
2218,00;95,50
2215,00;95,49
2212,00;95,42
2209,00;95,49
2206,00;95,53
2203,00;95,53
2200,00;95,52
2197,00;95,55
2194,00;95,49
2191,00;95,50
2188,00;95,49
2185,00;95,52
2182,00;95,66
2179,00;95,68
2176,00;95,69
2173,00;95,71
2170,00;95,54
2167,00;95,29
2164,00;95,20
2161,00;95,17
2158,00;96,25
2155,00;96,61
2152,00;96,39
2149,00;96,23
2146,00;96,18
2143,00;96,12
2140,00;96,10
2137,00;96,11
2134,00;96,30
2131,00;96,27
2128,00;96,05
2125,00;95,93
2122,00;95,85
2119,00;95,79
2116,00;95,70
2113,00;95,59
2110,00;95,57
2107,00;95,55
2104,00;95,59
2101,00;95,55
2098,00;95,57
2095,00;95,73
2092,00;95,75
2089,00;95,64
2086,00;95,59
2083,00;95,59
2080,00;95,58
2077,00;95,56
2074,00;95,59
2071,00;95,61
2068,00;95,73
2065,00;95,77
2062,00;95,78
2059,00;95,74
2056,00;95,70
2053,00;95,70
2050,00;95,44
2047,00;95,80
2044,00;95,84
2041,00;95,90
2038,00;95,94
2035,00;96,08
2032,00;96,30
2029,00;96,36
2026,00;96,39
2023,00;96,44
2020,00;96,51
2017,00;96,53
2014,00;96,47
2011,00;96,46
2008,00;96,50
2005,00;96,73
2002,00;96,62
1999,00;96,52
1996,00;96,36
1993,00;96,28
1990,00;96,22
1987,00;96,17
1984,00;96,11
1981,00;95,82
1978,00;96,08
1975,00;96,63
1972,00;96,71
1969,00;96,61
1966,00;96,45
1963,00;96,39
1960,00;96,47
1957,00;96,49
1954,00;96,29
1951,00;96,13
1948,00;95,99
1945,00;95,91
1942,00;95,82
1939,00;95,74
1936,00;95,72
1933,00;95,72
1930,00;95,74
1927,00;95,71
1924,00;95,70
1921,00;95,61
1918,00;95,59
1915,00;95,54
1912,00;95,52
1909,00;95,44
1906,00;95,36
1903,00;95,34
1900,00;95,27
1897,00;95,24
1894,00;95,22
1891,00;95,19
1888,00;95,17
1885,00;95,15
1882,00;95,12
1879,00;95,10
1876,00;95,05
1873,00;95,00
1870,00;94,94
1867,00;94,92
1864,00;94,89
1861,00;94,83
1858,00;94,79
1855,00;94,76
1852,00;94,74
1849,00;94,74
1846,00;94,74
1843,00;94,69
1840,00;94,65
1837,00;94,58
1834,00;94,55
1831,00;94,52
1828,00;94,44
1825,00;94,40
1822,00;94,31
1819,00;94,30
1816,00;94,30
1813,00;94,14
1810,00;93,98
1807,00;93,86
1804,00;93,82
1801,00;93,84
1798,00;93,87
1795,00;93,91
1792,00;93,93
1789,00;93,96
1786,00;93,94
1783,00;93,94
1780,00;93,96
1777,00;93,98
1774,00;93,95
1771,00;93,92
1768,00;93,96
1765,00;93,88
1762,00;93,83
1759,00;93,81
1756,00;93,83
1753,00;93,86
1750,00;93,91
1747,00;93,95
1744,00;93,95
1741,00;93,93
1738,00;93,91
1735,00;93,90
1732,00;93,86
1729,00;93,87
1726,00;93,78
1723,00;93,73
1720,00;93,69
1717,00;93,65
1714,00;93,63
1711,00;93,57
1708,00;93,51
1705,00;93,48
1702,00;93,46
1699,00;93,39
1696,00;93,37
1693,00;93,19
1690,00;93,08
1687,00;92,91
1684,00;92,67
1681,00;92,52
1678,00;92,29
1675,00;92,05
1672,00;91,84
1669,00;91,62
1666,00;91,37
1663,00;91,04
1660,00;90,73
1657,00;90,41
1654,00;90,06
1651,00;89,72
1648,00;89,50
1645,00;89,19
1642,00;88,89
1639,00;88,53
1636,00;88,11
1633,00;87,61
1630,00;87,02
1627,00;86,33
1624,00;85,57
1621,00;84,92
1618,00;85,06
1615,00;86,18
1612,00;87,32
1609,00;88,14
1606,00;88,45
1603,00;88,19
1600,00;87,73
1597,00;87,22
1594,00;82,39
1591,00;69,66
1588,00;69,97
1585,00;79,25
1582,00;84,55
1579,00;87,66
1576,00;89,87
1573,00;91,09
1570,00;91,69
1567,00;92,37
1564,00;92,82
1561,00;93,08
1558,00;93,30
1555,00;93,56
1552,00;93,65
1549,00;93,76
1546,00;93,83
1543,00;93,89
1540,00;93,90
1537,00;93,92
1534,00;93,90
1531,00;93,82
1528,00;93,70
1525,00;93,44
1522,00;93,04
1519,00;92,29
1516,00;91,20
1513,00;89,68
1510,00;87,55
1507,00;83,92
1504,00;77,99
1501,00;74,02
1498,00;72,32
1495,00;75,22
1492,00;79,99
1489,00;84,83
1486,00;87,81
1483,00;89,05
1480,00;89,14
1477,00;88,18
1474,00;84,40
1471,00;86,16
1468,00;89,82
1465,00;91,49
1462,00;92,30
1459,00;92,70
1456,00;92,84
1453,00;92,99
1450,00;93,21
1447,00;93,38
1444,00;93,33
1441,00;93,19
1438,00;92,95
1435,00;92,22
1432,00;91,28
1429,00;90,86
1426,00;91,51
1423,00;92,44
1420,00;93,16
1417,00;93,66
1414,00;93,80
1411,00;93,75
1408,00;93,42
1405,00;92,39
1402,00;90,75
1399,00;91,10
1396,00;92,62
1393,00;93,46
1390,00;93,77
1387,00;93,95
1384,00;94,06
1381,00;94,10
1378,00;94,11
1375,00;94,13
1372,00;94,17
1369,00;94,22
1366,00;94,27
1363,00;94,34
1360,00;94,35
1357,00;94,33
1354,00;94,31
1351,00;94,25
1348,00;94,14
1345,00;93,95
1342,00;93,56
1339,00;93,22
1336,00;93,11
1333,00;92,85
1330,00;92,60
1327,00;92,41
1324,00;91,80
1321,00;90,20
1318,00;90,12
1315,00;91,84
1312,00;92,88
1309,00;93,25
1306,00;93,24
1303,00;92,88
1300,00;92,08
1297,00;90,93
1294,00;89,93
1291,00;89,88
1288,00;90,72
1285,00;91,80
1282,00;92,62
1279,00;93,08
1276,00;93,22
1273,00;92,97
1270,00;92,19
1267,00;91,91
1264,00;92,80
1261,00;93,58
1258,00;93,98
1255,00;94,17
1252,00;94,26
1249,00;94,33
1246,00;94,39
1243,00;94,43
1240,00;94,43
1237,00;94,41
1234,00;94,39
1231,00;94,36
1228,00;94,36
1225,00;94,35
1222,00;94,32
1219,00;94,20
1216,00;93,91
1213,00;93,48
1210,00;93,51
1207,00;93,65
1204,00;93,47
1201,00;92,59
1198,00;90,31
1195,00;90,75
1192,00;92,44
1189,00;92,83
1186,00;92,81
1183,00;92,65
1180,00;92,38
1177,00;91,99
1174,00;91,44
1171,00;90,83
1168,00;90,24
1165,00;89,48
1162,00;88,54
1159,00;87,43
1156,00;86,13
1153,00;84,78
1150,00;83,50
1147,00;82,28
1144,00;80,90
1141,00;79,12
1138,00;77,20
1135,00;75,76
1132,00;74,85
1129,00;74,03
1126,00;73,53
1123,00;73,26
1120,00;72,62
1117,00;71,52
1114,00;70,08
1111,00;68,44
1108,00;66,74
1105,00;65,05
1102,00;63,45
1099,00;61,93
1096,00;60,50
1093,00;59,00
1090,00;57,15
1087,00;55,05
1084,00;53,31
1081,00;51,67
1078,00;49,41
1075,00;47,31
1072,00;46,14
1069,00;45,41
1066,00;44,59
1063,00;43,52
1060,00;42,14
1057,00;40,48
1054,00;38,64
1051,00;36,96
1048,00;35,87
1045,00;34,96
1042,00;33,56
1039,00;31,71
1036,00;29,62
1033,00;27,47
1030,00;25,38
1027,00;23,49
1024,00;21,94
1021,00;20,87
1018,00;20,32
1015,00;19,85
1012,00;19,12
1009,00;18,70
1006,00;18,92
1003,00;19,78
1000,00;21,16
997,00;22,96
994,00;25,14
991,00;27,64
988,00;30,44
985,00;33,51
982,00;36,65
979,00;39,49
976,00;41,99
973,00;44,91
970,00;47,61
967,00;48,96
964,00;50,77
961,00;54,11
958,00;57,22
955,00;59,75
952,00;61,72
949,00;62,88
946,00;62,59
943,00;60,06
940,00;55,28
937,00;51,24
934,00;50,57
931,00;50,90
928,00;50,10
925,00;50,43
922,00;53,62
919,00;57,95
916,00;61,91
913,00;65,10
910,00;67,60
907,00;69,64
904,00;71,35
901,00;72,78
898,00;73,96
895,00;75,00
892,00;75,96
889,00;76,82
886,00;77,58
883,00;78,23
880,00;78,83
877,00;79,44
874,00;80,04
871,00;80,60
868,00;81,16
865,00;81,63
862,00;81,88
859,00;81,53
856,00;79,19
853,00;70,39
850,00;57,25
847,00;57,64
844,00;66,43
841,00;72,17
838,00;74,01
835,00;74,11
832,00;74,49
829,00;74,07
826,00;68,84
823,00;56,90
820,00;52,89
817,00;59,93
814,00;66,96
811,00;71,29
808,00;73,68
805,00;74,78
802,00;74,83
799,00;74,33
796,00;74,39
793,00;74,76
790,00;73,84
787,00;69,78
784,00;64,41
781,00;65,31
778,00;70,13
775,00;73,62
772,00;74,56
769,00;71,75
766,00;72,75
763,00;75,30
760,00;75,98
757,00;76,64
754,00;77,09
751,00;77,25
748,00;77,24
745,00;77,17
742,00;77,00
739,00;76,47
736,00;74,55
733,00;71,22
730,00;71,26
727,00;73,57
724,00;75,02
721,00;75,71
718,00;76,29
715,00;76,81
712,00;77,26
709,00;77,62
706,00;78,01
703,00;78,38
700,00;78,58
697,00;78,75
694,00;78,79
691,00;78,27
688,00;77,00
685,00;77,07
682,00;78,29
679,00;78,94
676,00;79,16
673,00;79,26
670,00;80,09
667,00;80,46
664,00;79,57
661,00;79,62
658,00;79,72
655,00;79,81
652,00;79,89
649,00;79,88
646,00;79,91
643,00;79,84
640,00;79,83
637,00;79,93
634,00;79,97
631,00;79,95
628,00;80,04
625,00;80,06
622,00;80,08
619,00;80,16
616,00;80,18
613,00;80,19
610,00;80,23
607,00;80,28
604,00;80,35
601,00;80,29
598,00;80,36
595,00;80,39
592,00;80,51
589,00;80,57
586,00;80,51
583,00;80,53
580,00;80,53
577,00;80,59
574,00;80,65
571,00;80,63
568,00;80,68
565,00;80,68
562,00;80,60
559,00;80,44
556,00;80,11
553,00;79,12
550,00;78,11
547,00;74,98
544,00;62,01
541,00;50,66
538,00;56,35
535,00;62,58
532,00;62,94
529,00;60,13
526,00;56,25
523,00;52,30
520,00;52,73
517,00;58,38
514,00;64,02
511,00;67,69
508,00;69,84
505,00;70,38
502,00;66,72
499,00;64,85
496,00;68,25
493,00;69,83
490,00;70,75
487,00;72,20
484,00;73,06
481,00;73,74
478,00;74,31
475,00;74,68
472,00;74,96
469,00;75,37
466,00;75,76
463,00;76,31
460,00;76,58
457,00;76,37
454,00;76,15
451,00;75,21
450,00;74,70