File: data/raw_data/uvvis/20171020_GrNH2_azodye/171020_100min.csv
171020_100min.csv;;Kemi1\Kemi01;20-10-2017 14:42:24;GENESYS 10S UV-Vis;2L9T161212;4.006
nm;A
200;2.9769
201;3.0211
202;3.0797
203;3.107
204;3.1417
205;3.1581
206;3.1547
207;3.1414
208;3.1257
209;3.1091
210;3.1066
211;3.0962
212;3.1089
213;3.0928
214;3.0943
215;3.0894
216;3.0888
217;3.1037
218;3.1021
219;3.1039
220;3.1175
221;3.1182
222;3.1184
223;3.1471
224;3.1602
225;3.162
226;3.1799
227;3.198
228;3.2205
229;3.2361
230;3.2297
231;3.2212
232;3.2064
233;3.1928
234;3.1853
235;3.1896
236;3.182
237;3.1851
238;3.1721
239;3.166
240;3.1684
241;3.1797
242;3.1872
243;3.1893
244;3.1724
245;3.1569
246;3.1642
247;3.1717
248;3.1648
249;3.1559
250;3.1341
251;3.1221
252;3.1205
253;3.1213
254;3.082
255;3.0635
256;3.081
257;3.0507
258;3.0641
259;3.0683
260;3.0727
261;3.0605
262;3.0332
263;3.0049
264;2.9889
265;2.9993
266;2.978
267;2.9699
268;2.9598
269;2.9512
270;2.9489
271;2.9531
272;2.9594
273;2.9404
274;2.9305
275;2.9272
276;2.9251
277;2.9281
278;2.9259
279;2.922
280;2.9219
281;2.9276
282;2.9384
283;2.9409
284;2.9436
285;2.948
286;2.9575
287;2.9619
288;2.96
289;2.9653
290;2.9693
291;2.9743
292;2.9735
293;2.9802
294;2.9915
295;3.0016
296;3.0139
297;3.0316
298;3.0341
299;2.9925
300;2.8761
301;2.692
302;2.5027
303;2.3445
304;2.2201
305;2.1411
306;2.0979
307;2.0817
308;2.0846
309;2.1024
310;2.1326
311;2.1748
312;2.2204
313;2.2754
314;2.3419
315;2.3979
316;2.4535
317;2.5177
318;2.5832
319;2.6349
320;2.6807
321;2.7266
322;2.7654
323;2.8168
324;2.8457
325;2.8493
326;2.8685
327;2.8722
328;2.8721
329;2.8778
330;2.8783
331;2.8896
332;2.897
333;2.9053
334;2.8987
335;2.8863
336;2.8839
337;2.8761
338;2.8764
339;2.8685
340;2.8606
341;2.8627
342;2.8645
343;2.8672
344;2.8848
345;2.8764
346;2.8679
347;2.8513
348;2.8356
349;2.8292
350;2.8358
351;2.8306
352;2.8292
353;2.8333
354;2.8283
355;2.8273
356;2.8178
357;2.8142
358;2.7752
359;2.7169
360;2.6537
361;2.5607
362;2.4464
363;2.2925
364;2.1066
365;1.9341
366;1.776
367;1.6177
368;1.467
369;1.3218
370;1.1874
371;1.0721
372;0.972
373;0.8738
374;0.7895
375;0.7197
376;0.6572
377;0.6079
378;0.5686
379;0.5306
380;0.4945
381;0.4652
382;0.4401
383;0.4188
384;0.4008
385;0.3848
386;0.3709
387;0.3593
388;0.349
389;0.34
390;0.3317
391;0.3237
392;0.3177
393;0.3113
394;0.305
395;0.3003
396;0.2949
397;0.2896
398;0.285
399;0.2808
400;0.2765
401;0.2728
402;0.2686
403;0.265
404;0.2612
405;0.2581
406;0.2546
407;0.2511
408;0.2474
409;0.2443
410;0.241
411;0.238
412;0.2353
413;0.2324
414;0.2292
415;0.2265
416;0.2236
417;0.2207
418;0.218
419;0.2151
420;0.2122
421;0.2096
422;0.2068
423;0.2043
424;0.2019
425;0.1993
426;0.1969
427;0.1945
428;0.1919
429;0.1896
430;0.1868
431;0.1845
432;0.1816
433;0.1799
434;0.1778
435;0.1753
436;0.1732
437;0.171
438;0.1691
439;0.1669
440;0.165
441;0.1632
442;0.1613
443;0.1592
444;0.1573
445;0.1556
446;0.1538
447;0.1523
448;0.1506
449;0.149
450;0.1474
451;0.1456
452;0.1444
453;0.1429
454;0.1416
455;0.1401
456;0.1386
457;0.1371
458;0.1359
459;0.1346
460;0.1335
461;0.1323
462;0.1307
463;0.1297
464;0.1283
465;0.1271
466;0.1259
467;0.1248
468;0.1236
469;0.1223
470;0.1212
471;0.1203
472;0.119
473;0.1179
474;0.1168
475;0.1159
476;0.1145
477;0.1135
478;0.1125
479;0.1112
480;0.1105
481;0.1093
482;0.1082
483;0.1069
484;0.1061
485;0.1053
486;0.1043
487;0.1033
488;0.1024
489;0.1016
490;0.1002
491;0.0989
492;0.0982
493;0.0969
494;0.0961
495;0.095
496;0.0934
497;0.0926
498;0.0915
499;0.0901
500;0.089
501;0.0881
502;0.087
503;0.0862
504;0.0849
505;0.0838
506;0.0825
507;0.0816
508;0.0806
509;0.0795
510;0.0781
511;0.0772
512;0.0764
513;0.0754
514;0.074
515;0.073
516;0.072
517;0.0714
518;0.0705
519;0.07
520;0.0689
521;0.0678
522;0.0671
523;0.0665
524;0.0656
525;0.0648
526;0.0636
527;0.0632
528;0.0623
529;0.0615
530;0.0611
531;0.0603
532;0.0595
533;0.0587
534;0.0584
535;0.0574
536;0.0568
537;0.0564
538;0.0553
539;0.0551
540;0.0542
541;0.0535
542;0.053
543;0.0525
544;0.0518
545;0.0511
546;0.0505
547;0.05
548;0.0496
549;0.0485
550;0.0478
551;0.0472
552;0.0466
553;0.0468
554;0.0462
555;0.0458
556;0.0448
557;0.0443
558;0.0442
559;0.0432
560;0.0429
561;0.0423
562;0.0417
563;0.0427
564;0.0411
565;0.0402
566;0.0404
567;0.0401
568;0.0399
569;0.039
570;0.0391
571;0.038
572;0.0374
573;0.037
574;0.037
575;0.0363
576;0.0356
577;0.0363
578;0.0352
579;0.0349
580;0.0348
581;0.0343
582;0.0341
583;0.034
584;0.0326
585;0.0329
586;0.0322
587;0.0326
588;0.032
589;0.0315
590;0.0311
591;0.0307
592;0.0306
593;0.0298
594;0.03
595;0.0299
596;0.0295
597;0.0295
598;0.0287
599;0.0291
600;0.0286
601;0.0272
602;0.0276
603;0.0278
604;0.0276
605;0.0272
606;0.0264
607;0.0267
608;0.0265
609;0.0266
610;0.0258
611;0.0256
612;0.0249
613;0.0255
614;0.025
615;0.0244
616;0.0244
617;0.024
618;0.0234
619;0.0232
620;0.0232
621;0.0227
622;0.0228
623;0.0223
624;0.0228
625;0.0226
626;0.022
627;0.0217
628;0.0218
629;0.022
630;0.021
631;0.0211
632;0.0206
633;0.0211
634;0.0208
635;0.021
636;0.0197
637;0.0209
638;0.0199
639;0.0193
640;0.0198
641;0.0187
642;0.0181
643;0.0189
644;0.0182
645;0.0188
646;0.0177
647;0.0185
648;0.0174
649;0.0191
650;0.017
651;0.0177
652;0.0173
653;0.0173
654;0.0175
655;0.0171
656;0.0173
657;0.0175
658;0.017
659;0.0167
660;0.0176
661;0.0154
662;0.0166
663;0.0159
664;0.0159
665;0.0163
666;0.0158
667;0.015
668;0.0157
669;0.0169
670;0.0159
671;0.0167
672;0.0159
673;0.0159
674;0.0155
675;0.0154
676;0.0155
677;0.0155
678;0.0151
679;0.0153
680;0.0155
681;0.0149
682;0.0158
683;0.0158
684;0.0151
685;0.0158
686;0.015
687;0.0155
688;0.0154
689;0.0143
690;0.0156
691;0.0146
692;0.016
693;0.0145
694;0.0143
695;0.0143
696;0.0131
697;0.0153
698;0.0132
699;0.015
700;0.0151
701;0.0138
702;0.0144
703;0.0136
704;0.0127
705;0.0131
706;0.0137
707;0.0125
708;0.0134
709;0.0131
710;0.0126
711;0.0122
712;0.0131
713;0.0127
714;0.0124
715;0.0127
716;0.0121
717;0.0123
718;0.0124
719;0.0124
720;0.0117
721;0.0122
722;0.0123
723;0.0119
724;0.0119
725;0.0112
726;0.0124
727;0.0116
728;0.0113
729;0.012
730;0.0115
731;0.011
732;0.0111
733;0.0121
734;0.0111
735;0.0126
736;0.0127
737;0.0125
738;0.0118
739;0.0109
740;0.0111
741;0.0106
742;0.0115
743;0.0111
744;0.0106
745;0.0112
746;0.0105
747;0.01
748;0.0113
749;0.0107
750;0.0108
751;0.0099
752;0.0108
753;0.0111
754;0.01
755;0.0101
756;0.0103
757;0.0108
758;0.0099
759;0.0104
760;0.0104
761;0.0108
762;0.0101
763;0.0097
764;0.01
765;0.0102
766;0.0104
767;0.0096
768;0.0097
769;0.0096
770;0.0089
771;0.0088
772;0.0089
773;0.0081
774;0.01
775;0.0086
776;0.0083
777;0.0094
778;0.0092
779;0.0087
780;0.0084
781;0.0091
782;0.0084
783;0.0087
784;0.0094
785;0.0083
786;0.0082
787;0.0085
788;0.0092
789;0.0081
790;0.0086
791;0.0085
792;0.0085
793;0.0082
794;0.0079
795;0.0075
796;0.0074
797;0.0076
798;0.0075
799;0.0084
800;0.0086