File: data/derived_data/raman/20170920_Gr-NH2_for_Radisurf/20170920 Gr-NH for Radisurf map 1_1691__X_19.5__Y_-16__Time_181.txt
3396.06	0.492913
3393.86	-6.390049
3391.67	10.6599
3389.48	7.180463
3387.29	1.423728
3385.09	-10.0265
3382.9	-6.662498
3380.7	3.532135
3378.5	15.9981
3376.31	3.419054
3374.11	-0.050559
3371.91	10.1314
3369.71	0.976476
3367.52	-2.489117
3365.32	-5.952629
3363.12	-3.733084
3360.92	4.164760
3358.71	-2.703946
3356.51	2.918998
3354.31	-1.675371
3352.1	-0.593982
3349.9	0.486948
3347.7	3.835372
3345.49	1.513793
3343.29	-3.073026
3341.08	7.072144
3338.87	-7.707709
3336.66	1.301000
3334.46	9.172750
3332.25	6.854453
3330.04	-7.908204
3327.83	3.353304
3325.62	7.823841
3323.4	-0.143318
3321.19	-11.4964
3318.98	8.792946
3316.77	3.091724
3314.55	3.039934
3312.34	-7.171808
3310.12	1.808308
3307.91	-0.499175
3305.69	10.7302
3303.47	3.911286
3301.26	-2.903675
3299.04	15.0794
3296.82	-3.001435
3294.6	-3.050053
3292.38	2.531793
3290.16	4.733426
3287.94	3.557704
3285.71	-3.242732
3283.49	-4.415252
3281.27	0.035396
3279.04	-1.137087
3276.82	1.062762
3274.6	4.385046
3272.37	-3.526486
3270.14	-2.450259
3267.92	3.115798
3265.69	-1.421459
3263.46	-1.468243
3261.23	2.971670
3259	1.802660
3256.77	9.602424
3254.54	0.587757
3252.31	15.1059
3250.08	1.614908
3247.84	16.1249
3245.61	4.880332
3243.38	17.1433
3241.14	14.8554
3238.91	6.976493
3236.67	16.9927
3234.44	-3.178263
3232.2	2.365332
3229.96	0.085507
3227.72	14.5605
3225.48	20.0948
3223.24	8.882261
3221	11.0675
3218.76	21.0611
3216.52	9.858269
3214.28	6.466870
3212.04	10.8803
3209.79	14.177
3207.55	9.673710
3205.3	2.945587
3203.06	1.788528
3200.81	12.8764
3198.57	12.8303
3196.32	3.884542
3194.07	11.6264
3191.82	3.798206
3189.57	12.6475
3187.32	9.268621
3185.07	11.4463
3182.82	20.2863
3180.57	6.916186
3178.32	4.653282
3176.06	26.8039
3173.81	7.897057
3171.56	11.1813
3169.3	11.1377
3167.05	17.7446
3164.79	6.618879
3162.53	12.1158
3160.28	2.105754
3158.02	10.9225
3155.76	14.2004
3153.5	4.198730
3151.24	22.9634
3148.98	6.330039
3146.72	9.606105
3144.46	15.0909
3142.19	20.5728
3139.93	20.5286
3137.67	13.8589
3135.4	22.6488
3133.14	2.738666
3130.87	6.010273
3128.6	23.6195
3126.34	12.5483
3124.07	13.61
3121.8	16.8754
3119.53	-1.896406
3117.26	7.980573
3114.99	13.4475
3112.72	11.2056
3110.45	-2.039950
3108.18	5.625995
3105.9	9.988058
3103.63	22.0448
3101.36	8.811829
3099.08	13.1697
3096.8	6.538905
3094.53	9.796904
3092.25	16.3472
3089.97	14.1124
3087.7	7.489508
3085.42	4.161736
3083.14	12.9002
3080.86	5.187404
3078.58	4.055843
3076.3	-2.553953
3074.01	0.699614
3071.73	5.046647
3069.45	8.296476
3067.16	18.1119
3064.88	11.5083
3062.59	13.66
3060.31	12.5298
3058.02	10.3071
3055.73	15.7367
3053.45	15.7
3051.16	16.7558
3048.87	15.627
3046.58	16.6825
3044.29	13.3719
3042	3.516769
3039.7	10.0292
3037.41	2.361934
3035.12	6.690979
3032.82	18.6466
3030.53	14.2525
3028.23	12.0395
3025.94	18.5392
3023.64	18.5038
3021.34	17.3802
3019.05	19.5213
3016.75	18.3984
3014.45	21.6256
3012.15	16.1549
3009.85	13.9476
3007.55	24.7786
3005.25	8.451221
3002.94	20.3637
3000.64	14.9019
2998.34	35.4872
2996.03	12.667
2993.73	9.381699
2991.42	14.7722
2989.12	13.6562
2986.81	32.0458
2984.5	35.2589
2982.19	21.1429
2979.88	35.1842
2977.57	25.406
2975.26	25.3718
2972.95	21.011
2970.64	31.7924
2968.33	36.0813
2966.01	30.6408
2963.7	32.7668
2961.38	37.0521
2959.07	25.1374
2956.75	39.1385
2954.44	25.0719
2952.12	34.7496
2949.8	41.186
2947.48	45.4623
2945.16	38.9566
2942.84	30.2994
2940.52	30.2662
2938.2	34.5413
2935.88	36.6606
2933.56	32.3203
2931.24	40.8959
2928.91	29.0267
2926.59	31.1458
2924.26	40.7898
2921.94	28.9314
2919.61	28.9
2917.28	31.0172
2914.95	34.2072
2912.62	29.8803
2910.3	37.3622
2907.97	34.1102
2905.63	30.8602
2903.3	29.7569
2900.97	29.7264
2898.64	36.1266
2896.31	28.5946
2893.97	18.925
2891.64	22.1107
2889.3	32.7882
2886.97	27.4069
2884.63	29.5179
2882.29	28.4192
2879.95	29.4598
2877.62	37.9825
2875.28	31.5396
2872.94	31.5105
2870.59	24.0055
2868.25	39.9942
2865.91	32.4915
2863.57	27.1274
2861.22	21.7665
2858.88	23.874
2856.54	23.8482
2854.19	23.8226
2851.84	20.6006
2849.5	23.7718
2847.15	16.2924
2844.8	15.205
2842.45	13.0541
2840.1	11.9685
2837.75	37.475
2835.4	23.6232
2833.05	23.599
2830.7	32.0767
2828.34	16.1142
2825.99	32.0241
2823.63	22.4419
2821.28	26.6647
2818.92	23.4571
2816.57	23.434
2814.21	11.7451
2811.85	32.9304
2809.49	40.3244
2807.13	31.8201
2804.77	34.9732
2802.41	22.2398
2800.05	23.2768
2797.69	27.4884
2795.33	19.001
2792.96	31.6738
2790.6	23.1904
2788.23	15.7693
2785.87	27.3754
2783.5	21.0143
2781.13	15.7132
2778.77	19.9183
2776.4	26.2323
2774.03	23.0453
2771.66	28.3
2769.29	17.732
2766.92	17.7138
2764.55	20.8578
2762.17	29.2687
2759.8	32.4078
2757.43	32.3858
2755.05	31.3113
2752.68	39.7098
2750.3	34.4253
2747.92	37.5589
2745.55	34.3815
2743.17	40.6674
2740.79	52.2044
2738.41	47.9753
2736.03	63.7048
2733.65	51.0751
2731.27	68.8941
2728.88	54.1718
2726.5	63.5871
2724.12	74.0457
2721.73	85.5468
2719.35	81.319
2716.96	78.1416
2714.58	84.3941
2712.19	88.5485
2709.8	87.4661
2707.41	84.2912
2705.02	83.2109
2702.63	86.3153
2700.24	76.8699
2697.85	93.5644
2695.46	79.9424
2693.07	78.8657
2690.67	72.5675
2688.28	89.2442
2685.88	79.8154
2683.49	88.1322
2681.09	80.796
2678.69	64.0782
2676.29	70.3075
2673.9	68.1949
2671.5	60.8739
2669.1	72.3073
2666.7	46.2452
2664.29	46.2249
2661.89	51.4085
2659.49	46.1848
2657.09	42.0044
2654.68	38.8665
2652.28	41.9677
2649.87	52.3416
2647.46	45.0482
2645.06	26.3349
2642.65	39.8194
2640.24	33.5747
2637.83	34.5974
2635.42	31.4702
2633.01	27.308
2630.6	30.4056
2628.19	24.1736
2625.78	17.9455
2623.36	15.8644
2620.95	22.0688
2618.53	32.4104
2616.12	26.1878
2613.7	25.1419
2611.28	25.1311
2608.87	13.7467
2606.45	27.1772
2604.03	18.8993
2601.61	18.8909
2599.19	12.6862
2596.77	18.8745
2594.34	21.9629
2591.92	19.8906
2589.5	14.7251
2587.07	9.562748
2584.65	17.8053
2582.22	12.6454
2579.79	12.6402
2577.37	15.725
2574.94	26.0157
2572.51	12.6253
2570.08	14.6787
2567.65	9.529849
2565.22	9.526391
2562.79	12.6075
2560.36	12.6034
2557.92	13.6269
2555.49	16.7044
2553.05	4.376745
2550.62	12.5884
2548.18	8.479897
2545.75	12.5818
2543.31	21.8097
2540.87	14.6265
2538.43	12.5729
2535.99	20.7683
2533.55	17.69
2531.11	9.492957
2528.67	11.5393
2526.23	20.7492
2523.79	2.326880
2521.34	7.442696
2518.9	17.6686
2516.45	3.353339
2514	16.6406
2511.56	14.5948
2509.11	7.443378
2506.66	4.380728
2504.21	3.361574
2501.76	7.445478
2499.31	8.466612
2496.86	14.5865
2494.41	9.487907
2491.96	8.469456
2489.5	0.319245
2487.05	9.490677
2484.59	-3.746251
2482.14	10.5112
2479.68	4.406165
2477.22	6.444106
2474.77	12.5493
2472.31	12.5503
2469.85	3.403092
2467.39	8.487958
2464.93	8.490566
2462.46	0.368802
2460	15.603
2457.54	6.469301
2455.07	4.443777
2452.61	8.505661
2450.14	2.424863
2447.68	3.443996
2445.21	1.422377
2442.74	4.467702
2440.28	16.6267
2437.81	-2.609342
2435.34	18.6545
2432.87	11.5726
2430.39	8.541381
2427.92	8.546035
2425.45	-6.613917
2422.98	2.491651
2420.5	10.5815
2418.03	2.505559
2415.55	1.502933
2413.07	-0.508391
2410.6	-3.527506
2408.12	-2.509304
2405.64	3.551142
2403.16	3.558653
2400.68	4.574221
2398.2	6.596929
2395.72	4.589286
2393.23	4.597008
2390.75	-3.448803
2388.27	14.6769
2385.78	-3.427814
2383.3	-6.434526
2380.81	-4.411806
2378.32	10.6773
2375.84	-5.394046
2373.35	3.658997
2370.86	1.659649
2368.37	2.673566
2365.88	1.679675
2363.38	-5.333630
2360.89	8.721613
2358.4	2.713459
2355.9	4.728647
2353.41	-4.280829
2350.91	-1.262628
2348.42	1.753865
2345.92	-6.244864
2343.42	2.777133
2340.93	2.788194
2338.43	7.800975
2335.93	3.810721
2333.43	1.822436
2330.92	-5.161510
2328.42	-4.148284
2325.92	4.854820
2323.42	-2.123281
2320.91	11.865
2318.41	-0.100194
2315.9	4.900942
2313.39	1.920974
2310.88	-2.054029
2308.38	7.926877
2305.87	1.960007
2303.36	6.953568
2300.85	-1.996395
2298.34	4.986504
2295.82	1.018620
2293.31	7.001772
2290.8	7.014126
2288.28	-8.881227
2285.77	0.081667
2283.25	-7.852516
2280.73	-2.868478
2278.22	2.112659
2275.7	13.0472
2273.18	-0.835243
2270.66	0.172641
2268.14	2.171868
2265.62	-3.762081
2263.1	2.202188
2260.57	0.235738
2258.05	0.251810
2255.52	-8.644645
2253	0.284337
2250.47	-8.606444
2247.95	-4.629606
2245.42	-1.644165
2242.89	0.350786
2240.36	6.298576
2237.83	0.384761
2235.3	3.365509
2232.77	7.332154
2230.24	4.385641
2227.7	3.414979
2225.17	3.431688
2222.63	0.489458
2220.1	-0.478733
2217.56	-2.431969
2215.03	7.441545
2212.49	2.531927
2209.95	4.519326
2207.41	-11.2161
2204.87	-1.351511
2202.33	-1.332221
2199.79	0.654445
2197.25	-4.243298
2194.7	-7.171849
2192.16	-0.271202
2189.62	-8.111044
2187.07	-0.231936
2184.52	4.696944
2181.98	0.789258
2179.43	4.733860
2176.88	0.828826
2174.33	3.790599
2171.78	-1.091790
2169.23	1.869009
2166.68	1.888979
2164.12	-1.029137
2161.57	-1.008002
2159.02	-14.69
2156.46	-8.793419
2153.91	-2.900386
2151.35	8.856529
2148.79	0.076829
2146.23	-3.810845
2143.68	1.096904
2141.12	3.071697
2138.55	5.045382
2135.99	-5.671143
2133.43	-13.4536
2130.87	-0.745933
2128.3	7.078082
2125.74	-3.625331
2123.18	2.245801
2120.61	-0.655039
2118.04	-6.475898
2115.47	2.312079
2112.91	-1.559103
2110.34	-1.535497
2107.77	-1.511766
2105.2	1.429465
2102.62	5.341180
2100.05	7.306847
2097.48	3.442015
2094.91	9.292357
2092.33	1.545706
2089.76	2.539947
2087.18	-2.288484
2084.6	-1.293424
2082.02	-3.208148
2079.45	2.634077
2076.87	9.441977
2074.29	-2.162503
2071.71	-4.074121
2069.12	3.698120
2066.54	-5.957477
2063.96	1.810770
2061.37	4.737533
2058.79	-2.974972
2056.2	4.785452
2053.61	-4.854894
2051.03	-1.929213
2048.44	-4.800332
2045.85	0.054853
2043.26	11.6639
2040.67	3.001847
2038.08	-3.725339
2035.48	2.088266
2032.89	-2.706119
2030.3	2.140042
2027.7	1.202652
2025.11	-0.697202
2022.51	-7.409988
2019.91	0.319711
2017.31	7.082448
2014.71	-2.511949
2012.12	2.324400
2009.52	2.351116
2006.91	-0.505185
2004.31	-0.477337
2001.71	3.392335
1999.1	1.498898
1996.5	-0.393289
1993.89	1.554010
1991.29	-0.336781
1988.68	-0.308371
1986.07	4.513343
1983.46	3.582111
1980.86	-5.012804
1978.24	-4.024757
1975.63	6.537192
1973.02	4.649800
1970.41	2.763687
1967.79	-0.077694
1965.18	-1.004703
1962.57	3.804682
1959.95	-3.812236
1957.33	0.995211
1954.71	6.754861
1952.1	-3.719786
1949.48	8.719075
1946.86	4.929697
1944.24	-3.626473
1941.62	-4.548752
1938.99	5.968714
1936.37	6.950128
1933.74	0.309822
1931.12	12.7209
1928.49	-2.485382
1925.87	-3.405613
1923.24	2.335037
1920.61	-4.292866
1917.98	0.493819
1915.35	5.277620
1912.72	-1.344643
1910.09	-0.362943
1907.46	-6.029383
1904.82	0.649591
1902.19	-0.268046
1899.55	-5.928859
1896.92	3.589533
1894.28	-12.4986
1891.64	-0.140326
1889.01	2.734547
1886.37	4.660422
1883.73	4.691259
1881.09	4.722159
1878.44	-7.549763
1875.8	-1.838356
1873.16	3.869609
1870.51	-1.771748
1867.87	2.042400
1865.22	2.074717
1862.58	8.719221
1859.93	-3.526195
1857.28	-2.547862
1854.63	3.148411
1851.98	-1.536146
1849.33	5.099515
1846.68	1.360311
1844.03	7.991069
1841.37	-0.457495
1838.72	-0.423485
1836.06	4.318625
1833.41	3.410002
1830.75	-5.026054
1828.09	-3.108801
1825.44	-3.073507
1822.78	6.363023
1820.12	3.576037
1817.46	14.8838
1814.79	-1.053087
1812.13	3.676620
1809.47	11.2193
1806.8	2.805722
1804.14	3.777859
1801.47	1.936290
1798.8	1.970889
1796.14	-4.554443
1793.47	1.103410
1790.8	1.138512
1788.13	2.109923
1785.46	1.208894
1782.79	6.858126
1780.11	11.5685
1777.44	5.990372
1774.77	9.763450
1772.09	8.861926
1769.41	5.158549
1766.74	0.523779
1764.06	-0.373680
1761.38	3.395882
1758.7	0.632316
1756.02	1.601347
1753.34	8.164101
1750.66	17.5191
1747.97	11.0277
1745.29	11.0611
1742.61	8.300888
1739.92	9.266154
1737.23	14.8839
1734.55	7.473872
1731.86	19.5989
1729.17	2.895150
1726.48	5.719870
1723.79	8.542855
1721.1	7.648867
1718.4	-3.458209
1715.71	10.504
1713.02	8.682590
1710.32	22.6322
1707.62	3.188855
1704.93	-4.190504
1702.23	8.823357
1699.53	17.1968
1696.83	20.9341
1694.13	7.077926
1691.43	10.8163
1688.73	6.224977
1686.03	9.961403
1683.32	9.072152
1680.62	10.9567
1677.91	20.2327
1675.21	16.57
1672.5	10.1392
1669.79	10.1749
1667.08	14.8251
1664.38	17.6273
1661.66	18.5831
1658.95	26.9145
1656.24	16.8064
1653.53	25.1331
1650.81	20.5589
1648.1	28.8793
1645.38	33.5122
1642.66	39.0625
1639.95	45.5293
1637.23	51.9919
1634.51	55.6924
1631.79	70.4192
1629.07	73.1928
1626.35	101.681
1623.62	110.871
1620.9	128.314
1618.18	123.726
1615.45	153.079
1612.72	155.821
1610	160.395
1607.27	155.801
1604.54	171.365
1601.81	175.014
1599.08	174.998
1596.35	190.541
1593.61	217.968
1590.88	217.938
1588.15	253.567
1585.41	259.011
1582.68	296.431
1579.94	327.433
1577.2	318.237
1574.46	302.657
1571.72	258.799
1568.98	229.564
1566.24	190.317
1563.5	157.477
1560.76	144.709
1558.01	128.304
1555.27	128.305
1552.52	113.737
1549.77	98.2688
1547.03	113.747
1544.28	96.4698
1541.53	81.9317
1538.78	78.3111
1536.03	86.5062
1533.28	73.8025
1530.52	75.637
1527.77	72.9312
1525.01	74.7649
1522.26	77.5048
1519.5	58.4761
1516.74	56.6863
1513.99	60.3359
1511.23	54.9225
1508.47	47.7011
1505.71	52.2557
1502.94	58.6177
1500.18	45.973
1497.42	49.6192
1494.65	60.4976
1491.89	58.7128
1489.12	55.1218
1486.35	55.147
1483.59	51.5596
1480.82	47.0718
1478.05	55.2224
1475.28	49.8342
1472.5	54.371
1469.73	54.3966
1466.96	52.6195
1464.18	41.833
1461.41	53.5728
1458.63	46.395
1455.85	43.7229
1453.08	55.4507
1450.3	47.3799
1447.52	51.9046
1444.74	51.9314
1441.95	48.3634
1439.17	53.7819
1436.39	58.2988
1433.6	53.8344
1430.82	52.0657
1428.03	47.6064
1425.24	63.78
1422.46	63.8031
1419.67	62.0336
1416.88	64.7457
1414.09	72.8307
1411.29	61.2097
1408.5	80.9281
1405.71	63.0479
1402.91	74.7014
1400.12	81.8758
1397.32	86.3634
1394.53	90.8481
1391.73	83.7153
1388.93	89.9843
1386.13	91.7851
1383.33	110.543
1380.53	101.629
1377.72	118.587
1374.92	120.377
1372.11	130.187
1369.31	142.664
1366.5	163.15
1363.69	179.17
1360.88	175.595
1358.08	193.381
1355.27	206.707
1352.46	199.569
1349.64	216.44
1346.83	201.305
1344.02	199.507
1341.2	190.604
1338.38	179.932
1335.57	159.504
1332.75	179.904
1329.93	172.794
1327.11	139.974
1324.29	137.314
1321.47	108.958
1318.65	122.255
1315.83	105.435
1313	91.2812
1310.18	95.7211
1307.35	84.2343
1304.52	81.5988
1301.7	78.0809
1298.87	84.287
1296.04	94.9063
1293.21	83.4389
1290.38	68.4475
1287.54	72.8833
1284.71	72.9047
1281.88	63.2238
1279.04	50.9042
1276.2	60.6287
1273.37	46.5559
1270.53	47.4669
1267.69	49.2579
1264.85	45.7661
1262.01	47.5565
1259.17	40.5489
1256.32	31.7871
1253.48	40.6133
1250.63	36.2515
1247.79	40.6778
1244.94	31.9277
1242.1	30.2069
1239.25	27.6097
1236.4	28.5237
1233.55	37.3305
1230.7	38.2407
1227.84	32.1384
1224.99	32.1735
1222.13	20.822
1219.28	38.3729
1216.42	19.1491
1213.57	21.8136
1210.71	23.6017
1207.85	19.2675
1204.99	25.4259
1202.13	28.0849
1199.27	22.88
1196.4	26.4113
1193.54	16.8456
1190.68	22.122
1187.81	11.6917
1184.94	23.9432
1182.08	29.212
1179.21	19.6613
1176.34	10.1171
1173.47	17.9981
1170.6	15.426
1167.72	19.8185
1164.85	23.3381
1161.98	14.6784
1159.1	22.5448
1156.22	13.8911
1153.35	11.3256
1150.47	13.9735
1147.59	10.5415
1144.71	14.924
1141.83	12.3616
1138.95	2.861326
1136.06	13.3122
1133.18	10.753
1130.29	12.5284
1127.41	12.57
1124.52	21.2717
1121.63	13.519
1118.75	16.1565
1115.86	2.354762
1112.97	10.1833
1110.07	1.580220
1107.18	9.403808
1104.29	5.126544
1101.39	10.3527
1098.5	12.1217
1095.6	13.8896
1092.7	8.753784
1089.8	8.796545
1086.91	13.1504
1084.01	9.743895
1081.1	4.616408
1078.2	7.244572
1075.3	7.287741
1072.39	3.027007
1069.49	4.792580
1066.58	12.5783
1063.68	5.740360
1060.77	4.924346
1057.86	4.108896
1054.95	4.153012
1052.04	9.349564
1049.12	5.958071
1046.21	-6.012891
1043.3	0.039714
1040.38	5.230650
1037.46	1.845055
1034.55	-0.681276
1031.63	-1.492444
1028.71	4.548394
1025.79	4.592130
1022.87	8.059248
1019.95	4.679491
1017.03	5.578352
1014.1	5.621630
1011.18	9.083659
1008.25	11.6889
1005.32	9.167694
1002.39	10.9173
999.465	16.0798
996.535	12.7064
993.605	16.1589
990.672	23.8723
987.74	17.9425
984.807	16.2771
981.871	19.7236
978.936	14.6526
975.998	22.3534
973.061	13.0303
970.121	24.9795
967.182	25.8661
964.24	31.0023
961.299	23.3883
958.355	21.7259
955.412	20.0646
952.467	24.3468
949.52	23.5344
946.574	21.8741
943.625	20.2149
940.676	21.1001
937.727	16.0523
934.775	11.008
931.824	7.660863
928.871	1.776187
925.916	11.1291
922.961	1.017084
920.006	5.289380
917.049	7.022410
914.09	-1.387630
911.131	7.950240
908.172	1.234675
905.211	1.278005
902.248	-6.274729
899.285	-1.166648
896.32	-2.809481
893.355	1.450713
890.391	-5.249091
887.422	1.536668
884.455	1.579513
881.486	-0.903639
878.516	-8.435289
875.545	0.866302
872.572	0.909196
869.598	-2.411288
866.625	0.154201
863.648	-4.004088
860.672	-2.279825
857.695	-7.274230
854.717	-5.550116
851.738	2.885566
848.758	-2.105590
845.775	-0.385143
842.793	-2.857133
839.811	-1.137741
836.826	3.931088
833.84	-1.889462
830.854	0.664784
827.865	-6.824343
824.877	6.604376
821.887	-0.045521
818.896	-0.839372
815.904	0.874230
812.912	1.751224
809.918	0.957428
806.924	-2.340244
803.928	-7.304678
800.932	1.081579