File: data/derived_data/raman/20170920_Gr-NH2_for_Radisurf/20170920 Gr-NH for Radisurf map 2_697__X_7.65858__Y_-11.065__Time_703.txt
3396.06	-2.904507
3393.86	3.049572
3391.67	-18.4427
3389.48	6.816518
3387.29	5.848583
3385.09	13.9956
3382.9	1.634537
3380.7	13.1933
3378.5	-5.991953
3376.31	19.2187
3374.11	1.179185
3371.91	4.761077
3369.71	14.0261
3367.52	30.1066
3365.32	25.7204
3363.12	17.9275
3360.92	24.9047
3358.71	10.3022
3356.51	1.383459
3354.31	17.4376
3352.1	17.5977
3349.9	13.2201
3347.7	33.7918
3345.49	4.470696
3343.29	-6.701018
3341.08	34.2521
3338.87	2.688604
3336.66	3.981571
3334.46	18.8582
3332.25	11.0909
3330.04	19.1675
3327.83	1.223557
3325.62	9.297550
3323.4	27.5409
3321.19	20.9098
3318.98	-4.925498
3316.77	31.3776
3314.55	-0.093183
3312.34	18.1249
3310.12	8.117656
3307.91	15.0396
3305.69	16.3174
3303.47	-6.086353
3301.26	31.27
3299.04	31.4138
3296.82	22.5435
3294.6	31.6997
3292.38	16.077
3290.16	22.9774
3287.94	12.9922
3285.71	9.762669
3283.49	22.2816
3281.27	21.2994
3279.04	37.1795
3276.82	47.4311
3274.6	38.5765
3272.37	44.3282
3270.14	19.7581
3267.92	14.2851
3265.69	24.5264
3263.46	32.5176
3261.23	58.4499
3259	24.9376
3256.77	55.3404
3254.54	65.5534
3252.31	57.8344
3250.08	24.3582
3247.84	63.683
3245.61	51.492
3243.38	52.7367
3241.14	51.7426
3238.91	54.104
3236.67	64.2906
3234.44	52.1144
3232.2	52.2373
3229.96	52.3596
3227.72	54.7153
3225.48	50.3697
3223.24	43.7937
3221	64.0035
3218.76	74.1607
3216.52	59.775
3214.28	67.6968
3212.04	88.9899
3209.79	83.5257
3207.55	52.4409
3205.3	72.6053
3203.06	79.3966
3200.81	98.4278
3198.57	94.0793
3196.32	67.4832
3194.07	68.7058
3191.82	74.3745
3189.57	121.166
3187.32	93.4797
3185.07	91.359
3182.82	72.5804
3180.57	69.3557
3178.32	98.3211
3176.06	87.3226
3173.81	86.3138
3171.56	69.779
3169.3	88.7314
3167.05	82.1799
3164.79	105.549
3162.53	86.8107
3160.28	94.6607
3158.02	96.9701
3155.76	88.2098
3153.5	89.4124
3151.24	81.7646
3148.98	89.6027
3146.72	104.069
3144.46	83.1596
3142.19	89.8843
3139.93	98.8141
3137.67	94.4869
3135.4	92.3697
3133.14	100.186
3130.87	92.551
3128.6	66.1683
3126.34	76.1896
3124.07	97.229
3121.8	101.725
3119.53	74.2659
3117.26	98.5909
3114.99	105.283
3112.72	97.6607
3110.45	84.5395
3108.18	58.2229
3105.9	79.216
3103.63	94.6989
3101.36	82.6911
3099.08	109.153
3096.8	86.1607
3094.53	107.114
3092.25	90.7226
3089.97	94.0986
3087.7	82.1092
3085.42	93.1644
3083.14	93.2454
3080.86	85.651
3078.58	76.9643
3076.3	95.6774
3074.01	89.1831
3071.73	115.547
3069.45	106.861
3067.16	113.502
3064.88	100.443
3062.59	88.485
3060.31	90.7504
3058.02	122.533
3055.73	121.508
3053.45	105.185
3051.16	111.811
3048.87	119.525
3046.58	123.958
3044.29	115.292
3042	106.631
3039.7	108.881
3037.41	131.85
3035.12	100.296
3032.82	114.534
3030.53	83.0028
3028.23	107.04
3025.94	121.262
3023.64	136.565
3021.34	115.945
3019.05	131.24
3016.75	121.509
3014.45	133.53
3012.15	131.413
3009.85	127.123
3007.55	138.045
3005.25	132.668
3002.94	129.467
3000.64	171.856
2998.34	127.408
2996.03	133.973
2993.73	149.209
2991.42	154.679
2989.12	170.984
2986.81	173.193
2984.5	154.818
2982.19	155.947
2979.88	148.413
2977.57	189.589
2975.26	160.408
2972.95	181.003
2970.64	183.202
2968.33	183.237
2966.01	208.13
2963.7	188.708
2961.38	195.222
2959.07	190.932
2956.75	197.441
2954.44	187.756
2952.12	194.261
2949.8	203.997
2947.48	227.745
2945.16	207.282
2942.84	228.859
2940.52	204.098
2938.2	211.661
2935.88	204.146
2933.56	211.704
2931.24	209.573
2928.91	209.594
2926.59	204.238
2924.26	194.583
2921.94	201.057
2919.61	213.974
2917.28	201.101
2914.95	204.344
2912.62	219.395
2910.3	212.971
2907.97	202.258
2905.63	193.697
2903.3	187.284
2900.97	207.677
2898.64	188.403
2896.31	204.497
2893.97	204.514
2891.64	184.186
2889.3	176.715
2886.97	189.582
2884.63	189.602
2882.29	170.371
2879.95	196.058
2877.62	190.731
2875.28	190.749
2872.94	180.085
2870.59	196.126
2868.25	176.924
2865.91	171.609
2863.57	152.424
2861.22	170.587
2858.88	145.015
2856.54	180.227
2854.19	152.534
2851.84	165.347
2849.5	158.979
2847.15	176.041
2844.8	150.51
2842.45	147.344
2840.1	142.05
2837.75	128.251
2835.4	132.536
2833.05	157.016
2830.7	150.662
2828.34	162.373
2825.99	142.214
2823.63	117.819
2821.28	132.712
2818.92	104.089
2816.57	140.194
2814.21	137.038
2811.85	147.667
2809.49	137.09
2807.13	137.116
2804.77	158.327
2802.41	148.815
2800.05	158.365
2797.69	147.799
2795.33	130.891
2792.96	136.205
2790.6	155.263
2788.23	141.539
2785.87	150.015
2783.5	162.712
2781.13	169.064
2778.77	143.736
2776.4	163.812
2774.03	181.765
2771.66	152.235
2769.29	153.306
2766.92	177.572
2764.55	151.23
2762.17	156.515
2759.8	189.185
2757.43	178.659
2755.05	153.399
2752.68	186.041
2750.3	192.358
2747.92	216.554
2745.55	220.755
2743.17	231.262
2740.79	245.965
2738.41	233.343
2736.03	230.182
2733.65	249.072
2731.27	258.503
2728.88	279.472
2726.5	262.662
2724.12	245.861
2721.73	248.99
2719.35	269.936
2716.96	270.961
2714.58	271.984
2712.19	314.896
2709.8	258.325
2707.41	269.817
2705.02	266.653
2702.63	257.216
2700.24	271.834
2697.85	271.808
2695.46	270.737
2693.07	221.607
2690.67	248.751
2688.28	241.422
2685.88	221.572
2683.49	217.385
2681.09	245.541
2678.69	218.405
2676.29	182.945
2673.9	165.224
2671.5	183.983
2669.1	181.898
2666.7	185.02
2664.29	185.016
2661.89	174.606
2659.49	161.079
2657.09	164.203
2654.68	161.086
2652.28	129.904
2649.87	168.366
2647.46	135.122
2645.06	142.402
2642.65	123.721
2640.24	135.151
2637.83	131.01
2635.42	137.245
2633.01	134.142
2630.6	134.152
2628.19	117.578
2625.78	134.17
2623.36	101.033
2620.95	97.9444
2618.53	115.562
2616.12	114.541
2613.7	104.209
2611.28	98.0202
2608.87	103.209
2606.45	113.562
2604.03	109.442
2601.61	81.5646
2599.19	98.1112
2596.77	100.194
2594.34	112.596
2591.92	85.7822
2589.5	94.0552
2587.07	86.8551
2584.65	76.5666
2582.22	91.018
2579.79	71.4616
2577.37	85.9058
2574.94	87.9852
2572.51	90.0632
2570.08	72.588
2567.65	69.5254
2565.22	70.5783
2562.79	69.5742
2560.36	61.3758
2557.92	75.7876
2555.49	71.7008
2553.05	60.4282
2550.62	71.7471
2548.18	75.8753
2545.75	71.7929
2543.31	63.6102
2540.87	65.6861
2538.43	69.8106
2535.99	63.6851
2533.55	46.2943
2531.11	60.6621
2528.67	39.187
2526.23	44.3363
2523.79	64.8308
2521.34	37.2361
2518.9	49.5394
2516.45	57.7461
2514	51.6399
2511.56	48.6023
2509.11	50.6734
2506.66	68.0593
2504.21	60.9362
2501.76	58.9196
2499.31	40.5818
2496.86	34.493
2494.41	50.8377
2491.96	50.8648
2489.5	42.7403
2487.05	51.9374
2484.59	49.9273
2482.14	56.0624
2479.68	23.521
2477.22	37.7995
2474.77	28.6762
2472.31	61.2467
2469.85	53.1383
2467.39	34.8728
2464.93	31.8564
2462.46	53.2154
2460	55.2715
2457.54	53.2665
2455.07	53.292
2452.61	59.4035
2450.14	57.399
2447.68	46.2721
2445.21	29.0713
2442.74	46.3269
2440.28	44.3287
2437.81	14.9939
2435.34	36.2869
2432.87	39.3529
2430.39	38.3706
2427.92	21.2084
2425.45	33.375
2422.98	45.5342
2420.5	18.2815
2418.03	42.5588
2415.55	38.548
2413.07	36.5586
2410.6	19.4331
2408.12	22.4949
2405.64	28.5804
2403.16	25.5882
2400.68	43.7643
2398.2	19.6092
2395.72	27.703
2393.23	21.6936
2390.75	17.7014
2388.27	26.7948
2385.78	18.7791
2383.3	16.8029
2380.81	16.839
2378.32	9.838883
2375.84	2.842913
2373.35	24.9841
2370.86	26.022
2368.37	20.0316
2365.88	14.0449
2363.38	10.0686
2360.89	13.1161
2358.4	16.1619
2355.9	15.196
2353.41	19.2415
2350.91	8.257041
2348.42	36.3391
2345.92	10.3377
2343.42	-3.636659
2340.93	4.411154
2338.43	4.451649
2335.93	34.4925
2333.43	18.5286
2330.92	15.5668
2328.42	28.5924
2325.92	9.648594
2323.42	10.6863
2320.91	18.7109
2318.41	13.758
2315.9	10.8034
2313.39	-4.116516
2310.88	13.8728
2308.38	2.947779
2305.87	23.9133
2303.36	15.9802
2300.85	15.0224
2298.34	25.0153
2295.82	4.152557
2293.31	15.1378
2290.8	6.225462
2288.28	10.2438
2285.77	15.2538
2283.25	-5.573599
2280.73	23.2782
2278.22	16.3636
2275.7	15.4097
2273.18	17.4337
2270.66	11.5197
2268.14	18.5031
2265.62	3.669070
2263.1	18.5804
2260.57	24.5646
2258.05	-2.144440
2255.52	15.7263
2253	5.866461
2250.47	11.8478
2247.95	-0.972731
2245.42	2.040084
2242.89	10.9838
2240.36	11.026
2237.83	6.127499
2235.3	6.171380
2232.77	1.277598
2230.24	15.1451
2227.7	-1.591670
2225.17	12.2685
2222.63	17.2431
2220.1	2.493669
2217.56	2.539750
2215.03	4.556921
2212.49	-14.115
2209.95	-8.154310
2207.41	-8.104282
2204.87	4.741081
2202.33	-7.019731
2199.79	-1.067730
2197.25	-0.035827
2194.7	12.792
2192.16	-11.7316
2189.62	-7.749502
2187.07	0.158890
2184.52	-7.646627
2181.98	-8.576466
2179.43	10.1189
2176.88	0.356357
2174.33	6.289833
2171.78	7.318355
2169.23	3.446391
2166.68	13.2929
2164.12	-7.227942
2161.57	-3.258292
2159.02	3.645434
2156.46	13.4808
2153.91	5.702584
2151.35	-4.026290
2148.79	-5.928217
2146.23	19.5355
2143.68	-14.6127
2141.12	11.8152
2138.55	3.076998
2135.99	8.985723
2133.43	11.9638
2130.87	20.7931
2128.3	6.212873
2125.74	0.415853
2123.18	0.470098
2120.61	7.344566
2118.04	-11.1083
2115.47	-3.260302
2112.91	-2.230509
2110.34	-2.174164
2107.77	5.664623
2105.2	0.856719
2102.62	20.3563
2100.05	10.6881
2097.48	20.4574
2094.91	-0.859415
2092.33	2.111280
2089.76	21.5817
2087.18	1.255613
2084.6	12.9544
2082.02	1.372000
2079.45	9.186206
2076.87	-4.325515
2074.29	-7.171154
2071.71	-2.266312
2069.12	-2.205410
2066.54	15.279
2063.96	7.593833
2061.37	-5.890356
2058.79	-2.926008
2056.2	1.003634
2053.61	21.3609
2051.03	20.4505
2048.44	10.8483
2045.85	15.7357
2043.26	-2.545552
2040.67	21.6425
2038.08	13.9826
2035.48	-4.279963
2032.89	13.1389
2030.3	16.0911
2027.7	4.590114
2025.11	2.728106
2022.51	16.2731
2019.91	1.896303
2017.31	6.773681
2014.71	4.914842
2012.12	28.0602
2009.52	6.008378
2006.91	6.074730
2004.31	4.219986
2001.71	14.8524
1999.1	7.236065
1996.5	8.263296
1993.89	2.573527
1991.29	-2.153069
1988.68	13.2616
1986.07	-2.968305
1983.46	3.812688
1980.86	8.673732
1978.24	2.039275
1975.63	12.6433
1973.02	6.969713
1970.41	0.343245
1967.79	20.5046
1965.18	1.447644
1962.57	12.9934
1959.95	-2.225712
1957.33	5.493377
1954.71	5.567827
1952.1	0.868802
1949.48	11.4444
1946.86	8.655821
1944.24	10.6386
1941.62	-7.403994
1938.99	6.022587
1936.37	4.193905
1933.74	-0.491085
1931.12	-7.077390
1928.49	9.190211
1925.87	4.509471
1923.24	10.2982
1920.61	9.425637
1917.98	9.504955
1915.35	0.079166
1912.72	-8.389994
1910.09	4.045827
1907.46	4.128756
1904.82	1.363984
1902.19	19.481
1899.55	7.226472
1896.92	-20.1953
1894.28	28.2544
1891.64	-1.051513
1889.01	-13.282
1886.37	-11.2953
1883.73	10.5774
1881.09	-9.217141
1878.44	5.071087
1875.8	-1.463088
1873.16	10.9232
1870.51	12.9019
1867.87	12.0442
1865.22	12.1326
1862.58	-12.3378
1859.93	-0.909310
1857.28	7.680653
1854.63	10.6036
1851.98	-6.286089
1849.33	10.787
1846.68	1.451503
1844.03	-11.6475
1841.37	2.586232
1838.72	-0.142751
1836.06	7.488217
1833.41	0.054052
1830.75	2.035249
1828.09	-9.154134
1825.44	3.174497
1822.78	11.7354
1820.12	4.314635
1817.46	-3.100756
1814.79	11.0913
1812.13	5.557400
1809.47	0.027722
1806.8	15.1454
1804.14	14.3075
1801.47	18.1595
1798.8	-11.738
1796.14	10.8639
1793.47	8.157354
1790.8	-7.658458
1788.13	1.815083
1785.46	11.2832
1782.79	3.904239
1780.11	4.948922
1777.44	10.6688
1774.77	6.103346
1772.09	-6.868678
1769.41	10.0615
1766.74	1.767163
1764.06	4.681612
1761.38	15.9943
1758.7	22.6356
1756.02	5.023825
1753.34	24.7191
1750.66	16.4401
1747.97	11.894
1745.29	12.0091
1742.61	18.6432
1739.92	24.3429
1737.23	19.8031
1734.55	13.4061
1731.86	4.224116
1729.17	15.5023
1726.48	18.4092
1723.79	12.9528
1721.1	11.2161
1718.4	4.838607
1715.71	26.3127
1713.02	35.7107
1710.32	25.6232
1707.62	-4.858520
1704.93	19.3753
1702.23	25.9863
1699.53	13.1384
1696.83	16.9703
1694.13	14.3195
1691.43	22.7779
1688.73	3.473640
1686.03	24.8812
1683.32	25.9329
1680.62	22.363
1677.91	30.8092
1675.21	26.3178
1672.5	18.1361
1669.79	21.0387
1667.08	28.5548
1664.38	44.3701
1661.66	44.4971
1658.95	34.4829
1656.24	57.6572
1653.53	64.2321
1650.81	82.7782
1648.1	60.797
1645.38	64.6055
1642.66	111.663
1639.95	120.054
1637.23	147.753
1634.51	183.709
1631.79	194.828
1629.07	259.229
1626.35	288.688
1623.62	340.164
1620.9	392.526
1618.18	411.822
1615.45	432.025
1612.72	468.72
1610	509.977
1607.27	500.806
1604.54	552.104
1601.81	566.737
1599.08	593.264
1596.35	624.351
1593.61	695.674
1590.88	734.026
1588.15	782.411
1585.41	828.024
1582.68	793.2
1579.94	773.928
1577.2	704.446
1574.46	646.877
1571.72	570.182
1568.98	478.03
1566.24	483.518
1563.5	458.006
1560.76	419.753
1558.01	411.591
1555.27	403.435
1552.52	361.597
1549.77	326.158
1547.03	312.581
1544.28	322.664
1541.53	285.456
1538.78	284.634
1536.03	254.735
1533.28	272.094
1530.52	248.577
1527.77	255.035
1525.01	232.448
1522.26	208.063
1519.5	216.344
1516.74	184.728
1513.99	193.92
1511.23	175.019
1508.47	185.116
1505.71	161.705
1502.94	173.612
1500.18	164.7
1497.42	167.555
1494.65	174.026
1491.89	149.757
1489.12	166.172
1486.35	148.248
1483.59	152.012
1480.82	152.163
1478.05	171.268
1475.28	159.685
1472.5	151.719
1469.73	159.087
1466.96	151.129
1464.18	163.901
1461.41	155.948
1458.63	149.803
1455.85	168.867
1453.08	162.724
1450.3	153.887
1447.52	147.754
1444.74	153.314
1441.95	161.568
1439.17	183.293
1436.39	177.163
1433.6	194.383
1430.82	197.231
1428.03	209.051
1425.24	200.235
1422.46	204.876
1419.67	195.172
1416.88	215.943
1414.09	226.848
1411.29	209.987
1408.5	245.059
1405.71	229.995
1402.91	255.199
1400.12	279.493
1397.32	292.151
1394.53	294.077
1391.73	305.83
1388.93	306.859
1386.13	367.71
1383.33	353.547
1380.53	367.055
1377.72	388.583
1374.92	395.831
1372.11	437.839
1369.31	440.613
1366.5	453.185
1363.69	504.042
1360.88	507.685
1358.08	517.557
1355.27	521.196
1352.46	545.288
1349.64	508.022
1346.83	532.105
1344.02	524.189
1341.2	504.734
1338.38	507.489
1335.57	495.155
1332.75	478.394
1329.93	429.714
1327.11	428.062
1324.29	424.639
1321.47	378.686
1318.65	370.856
1315.83	332.924
1313	310.953
1310.18	299.616
1307.35	261.749
1304.52	258.399
1301.7	263.008
1298.87	234.916
1296.04	219.213
1293.21	199.989
1290.38	191.373
1287.54	175.704
1284.71	172.399
1281.88	168.216
1279.04	141.111
1276.2	155.454
1273.37	128.375
1270.53	136.549
1267.69	120.944
1264.85	106.231
1262.01	113.529
1259.17	101.471
1256.32	92.0593
1253.48	90.5678
1250.63	95.2306
1247.79	83.1998
1244.94	66.7872
1242.1	74.9693
1239.25	72.6158
1236.4	79.9162
1233.55	53.8847
1230.7	60.3127
1227.84	70.2437
1224.99	55.6365
1222.13	49.7997
1219.28	40.4654
1216.42	45.1443
1213.57	39.3212
1210.71	49.2486
1207.85	37.3101
1204.99	27.1292
1202.13	31.8124
1199.27	40.8617
1196.4	36.8076
1193.54	23.1549
1190.68	38.3117
1187.81	13.3296
1184.94	24.9944
1182.08	26.1911
1179.21	19.545
1176.34	19.8747
1173.47	28.0441
1170.6	17.9264
1167.72	21.7426
1164.85	25.5579
1161.98	29.3725
1159.1	9.709723
1156.22	12.6611
1153.35	20.8256
1150.47	22.0371
1147.59	11.0933
1144.71	27.9354
1141.83	27.413
1138.95	12.146
1136.06	18.57
1133.18	19.79
1130.29	6.279335
1127.41	11.8375
1124.52	7.867772
1121.63	13.4254
1118.75	12.0575
1115.86	8.961880
1112.97	5.005365
1110.07	4.511592
1107.18	5.748293
1104.29	6.121813
1101.39	4.769627
1098.5	5.147040
1095.6	12.4306
1092.7	4.180685
1089.8	8.013193
1086.91	4.946955
1084.01	13.9519
1081.1	10.8896
1078.2	0.940142
1075.3	12.5258
1072.39	1.725382
1069.49	8.143990
1066.58	-6.084808
1063.68	-2.244240
1060.77	-0.983121
1057.86	-3.158162
1054.95	-2.752908
1052.04	-4.063710
1049.12	-0.220557
1046.21	-12.6838
1043.3	-7.978958
1040.38	-3.275273
1037.46	-6.288722
1034.55	-5.870344
1031.63	-2.023298
1028.71	-5.028246
1025.79	-8.885528
1022.87	4.378916
1019.95	-2.897334
1017.03	-1.614137
1014.1	-0.329723
1011.18	-2.462839
1008.25	0.533710
1005.32	-4.156685
1002.39	-10.5497
999.465	-1.572673
996.535	-6.251825
993.605	7.839097
990.672	-0.246442
987.74	1.903569
984.807	-3.614522
981.871	7.057523
978.936	4.951500
975.998	7.105205
973.061	1.600915
970.121	14.8167
967.182	12.7191
964.24	20.8258
961.299	9.384086
958.355	14.0926
955.412	0.966674
952.467	12.4703
949.52	1.055560
946.574	1.526828
943.625	15.5691
940.676	20.2784
937.727	2.104841
934.775	1.736681
931.824	3.064502
928.871	-0.685892
925.916	-1.892491
922.961	2.825856
920.006	1.622829
917.049	2.959272
914.09	-0.773795
911.131	-1.122854
908.172	-6.537158
905.211	-0.969626
902.248	-2.155556
899.285	-9.244654
896.32	-6.205435
893.355	-11.5976
890.391	-6.027058
887.422	2.912683
884.455	-2.470623
881.486	1.413986
878.516	-1.435215
875.545	0.768044
872.572	-6.280075
869.598	-2.390140
866.625	0.658321
863.648	-1.334025
860.672	-1.642976
857.695	-1.109934
854.717	7.819119
851.738	-0.037878
848.758	0.501140
845.775	-5.665923
842.793	3.261670
839.811	4.643717
836.826	1.001362
833.84	-0.961217
830.854	10.4731
827.865	10.1869
824.877	4.884011
821.887	12.9669
818.896	7.671432
815.904	6.560417
812.912	14.6413
809.918	6.017810
806.924	3.245938
803.928	16.334
800.932	-0.616251