File: data/raw_data/uvvis/20180110_GrNH2_azodye/20180110_30min.csv
20180110_30min.csv;;Kemi1\Kemi01;10-01-2018 17:39:13;GENESYS 10S UV-Vis;2L9T161212;4.006
nm;A
200;3.2464
201;3.2707
202;3.3368
203;3.3985
204;3.4662
205;3.4866
206;3.4836
207;3.5074
208;3.483
209;3.4879
210;3.4865
211;3.4707
212;3.5065
213;3.4795
214;3.4815
215;3.4852
216;3.518
217;3.5083
218;3.5381
219;3.5505
220;3.5373
221;3.55
222;3.5694
223;3.5795
224;3.6172
225;3.6255
226;3.6202
227;3.6402
228;3.7379
229;3.7587
230;3.7611
231;3.7262
232;3.6562
233;3.6583
234;3.656
235;3.6571
236;3.6521
237;3.6407
238;3.6368
239;3.6253
240;3.6403
241;3.6224
242;3.6822
243;3.687
244;3.639
245;3.6158
246;3.6224
247;3.6924
248;3.6813
249;3.625
250;3.5833
251;3.5733
252;3.5871
253;3.6401
254;3.5679
255;3.5193
256;3.5077
257;3.5026
258;3.4821
259;3.5094
260;3.5083
261;3.4893
262;3.4859
263;3.4446
264;3.44
265;3.4362
266;3.4575
267;3.4433
268;3.4252
269;3.417
270;3.4099
271;3.4236
272;3.3919
273;3.4092
274;3.4073
275;3.3979
276;3.3985
277;3.4138
278;3.4093
279;3.4105
280;3.4012
281;3.4074
282;3.4101
283;3.399
284;3.4235
285;3.4545
286;3.4301
287;3.4275
288;3.4515
289;3.4661
290;3.4576
291;3.4632
292;3.4598
293;3.4571
294;3.4688
295;3.4927
296;3.5011
297;3.5258
298;3.5222
299;3.4588
300;3.3349
301;3.1352
302;2.9111
303;2.7083
304;2.5551
305;2.4623
306;2.4094
307;2.3938
308;2.4045
309;2.4331
310;2.4822
311;2.5464
312;2.6204
313;2.6985
314;2.7997
315;2.8874
316;2.9696
317;3.0515
318;3.1407
319;3.2087
320;3.2566
321;3.2731
322;3.3143
323;3.3725
324;3.3936
325;3.3905
326;3.3969
327;3.3844
328;3.3737
329;3.3827
330;3.3815
331;3.3904
332;3.3895
333;3.3881
334;3.3784
335;3.3673
336;3.3581
337;3.3528
338;3.3554
339;3.3487
340;3.3513
341;3.3447
342;3.3516
343;3.3485
344;3.372
345;3.3503
346;3.3718
347;3.3289
348;3.2958
349;3.3246
350;3.3021
351;3.3056
352;3.2998
353;3.3227
354;3.3066
355;3.315
356;3.3216
357;3.3258
358;3.3007
359;3.2604
360;3.2306
361;3.1652
362;3.0594
363;2.9019
364;2.6823
365;2.4784
366;2.2872
367;2.0917
368;1.9028
369;1.7204
370;1.5542
371;1.4121
372;1.2888
373;1.169
374;1.0686
375;0.9846
376;0.9123
377;0.8546
378;0.8114
379;0.7697
380;0.7313
381;0.7018
382;0.679
383;0.6602
384;0.6469
385;0.637
386;0.63
387;0.6261
388;0.6246
389;0.6249
390;0.6269
391;0.6302
392;0.634
393;0.6398
394;0.6463
395;0.6525
396;0.6607
397;0.6689
398;0.678
399;0.6866
400;0.6952
401;0.7041
402;0.7127
403;0.7222
404;0.731
405;0.7396
406;0.7488
407;0.7576
408;0.7667
409;0.7753
410;0.7836
411;0.7909
412;0.7985
413;0.8057
414;0.8128
415;0.8192
416;0.8258
417;0.8316
418;0.8369
419;0.8421
420;0.8465
421;0.8502
422;0.8536
423;0.8566
424;0.8592
425;0.8612
426;0.8628
427;0.8641
428;0.8651
429;0.8656
430;0.8655
431;0.8652
432;0.8649
433;0.8642
434;0.8627
435;0.8615
436;0.8597
437;0.8579
438;0.8557
439;0.8534
440;0.8507
441;0.8481
442;0.845
443;0.8418
444;0.8386
445;0.8349
446;0.8314
447;0.8281
448;0.8245
449;0.8209
450;0.8172
451;0.8136
452;0.8102
453;0.8067
454;0.8029
455;0.7993
456;0.7961
457;0.7929
458;0.7899
459;0.7871
460;0.7847
461;0.7826
462;0.7801
463;0.7785
464;0.7769
465;0.7756
466;0.7746
467;0.7738
468;0.7735
469;0.7734
470;0.7737
471;0.7743
472;0.7748
473;0.776
474;0.7772
475;0.7787
476;0.7804
477;0.7822
478;0.784
479;0.7861
480;0.7885
481;0.7905
482;0.7927
483;0.7948
484;0.7966
485;0.7984
486;0.8011
487;0.8031
488;0.8052
489;0.807
490;0.809
491;0.8104
492;0.8115
493;0.8128
494;0.8138
495;0.8147
496;0.815
497;0.8154
498;0.8154
499;0.815
500;0.8145
501;0.8135
502;0.8121
503;0.8106
504;0.8092
505;0.8072
506;0.8043
507;0.8018
508;0.799
509;0.7956
510;0.792
511;0.7877
512;0.7836
513;0.7791
514;0.7742
515;0.7688
516;0.7635
517;0.7575
518;0.751
519;0.745
520;0.7387
521;0.7319
522;0.7238
523;0.7159
524;0.7081
525;0.6997
526;0.6917
527;0.6828
528;0.6736
529;0.6656
530;0.6571
531;0.6474
532;0.6372
533;0.6265
534;0.6171
535;0.6076
536;0.5957
537;0.5859
538;0.5758
539;0.5643
540;0.5527
541;0.5413
542;0.5318
543;0.5211
544;0.5094
545;0.4976
546;0.486
547;0.4743
548;0.4635
549;0.4527
550;0.4407
551;0.4301
552;0.4181
553;0.4066
554;0.3965
555;0.3852
556;0.3739
557;0.3632
558;0.3518
559;0.3411
560;0.3312
561;0.3204
562;0.3104
563;0.3001
564;0.2896
565;0.2798
566;0.2711
567;0.2612
568;0.2517
569;0.243
570;0.2335
571;0.2247
572;0.2167
573;0.2092
574;0.2014
575;0.1935
576;0.1862
577;0.18
578;0.1724
579;0.1661
580;0.1595
581;0.1526
582;0.1469
583;0.1404
584;0.1354
585;0.1298
586;0.1239
587;0.119
588;0.1145
589;0.1095
590;0.1052
591;0.1013
592;0.0965
593;0.0928
594;0.0894
595;0.0853
596;0.082
597;0.0782
598;0.0757
599;0.0727
600;0.0694
601;0.0669
602;0.0634
603;0.0619
604;0.059
605;0.0566
606;0.0549
607;0.0532
608;0.0508
609;0.0491
610;0.0472
611;0.0451
612;0.044
613;0.0422
614;0.0406
615;0.0393
616;0.0379
617;0.0365
618;0.0351
619;0.0342
620;0.033
621;0.0315
622;0.0309
623;0.0302
624;0.029
625;0.0278
626;0.0274
627;0.0272
628;0.0257
629;0.0252
630;0.0246
631;0.0238
632;0.0232
633;0.0226
634;0.0219
635;0.0216
636;0.0211
637;0.0206
638;0.0202
639;0.0195
640;0.0189
641;0.0184
642;0.0182
643;0.0183
644;0.0177
645;0.0177
646;0.0171
647;0.0166
648;0.0163
649;0.0161
650;0.016
651;0.0154
652;0.0152
653;0.015
654;0.0146
655;0.0142
656;0.0145
657;0.0138
658;0.0135
659;0.014
660;0.0138
661;0.0134
662;0.0128
663;0.0127
664;0.0129
665;0.0125
666;0.0122
667;0.0121
668;0.0119
669;0.0117
670;0.012
671;0.0114
672;0.0117
673;0.0115
674;0.011
675;0.0113
676;0.0106
677;0.0107
678;0.0104
679;0.01
680;0.0101
681;0.0101
682;0.0106
683;0.0102
684;0.01
685;0.0096
686;0.0101
687;0.0093
688;0.0094
689;0.0089
690;0.0094
691;0.0091
692;0.0087
693;0.0083
694;0.0087
695;0.0088
696;0.009
697;0.0088
698;0.0083
699;0.0082
700;0.0082
701;0.0079
702;0.008
703;0.0076
704;0.0077
705;0.0076
706;0.0085
707;0.008
708;0.0075
709;0.0073
710;0.0071
711;0.0073
712;0.007
713;0.0075
714;0.0072
715;0.0072
716;0.007
717;0.007
718;0.0068
719;0.0072
720;0.0064
721;0.0071
722;0.0064
723;0.0071
724;0.0071
725;0.0068
726;0.0068
727;0.006
728;0.0066
729;0.0068
730;0.0063
731;0.0065
732;0.0064
733;0.0064
734;0.0068
735;0.0063
736;0.0066
737;0.006
738;0.0061
739;0.006
740;0.0064
741;0.0062
742;0.0063
743;0.0061
744;0.0065
745;0.006
746;0.0054
747;0.0058
748;0.0055
749;0.0061
750;0.0058
751;0.0056
752;0.0059
753;0.0057
754;0.0059
755;0.0058
756;0.0057
757;0.0056
758;0.0063
759;0.0059
760;0.0063
761;0.0059
762;0.0054
763;0.0054
764;0.0057
765;0.0054
766;0.0055
767;0.0046
768;0.0048
769;0.0059
770;0.0053
771;0.0053
772;0.005
773;0.0053
774;0.0058
775;0.0053
776;0.0053
777;0.0057
778;0.0052
779;0.0051
780;0.0047
781;0.0049
782;0.005
783;0.0048
784;0.0055
785;0.0046
786;0.0054
787;0.0052
788;0.0058
789;0.0052
790;0.0055
791;0.0048
792;0.0044
793;0.0044
794;0.0042
795;0.0052
796;0.0037
797;0.0048
798;0.0042
799;0.0038
800;0.0051