File: data/raw_data/ir/20170922_ATR-IR_Gr-NH2/Administrator 1001_148_1.csv
Created as New Dataset;Sample 1001 By Administrator Date fredag, september 22 2017
cm-1;%T
4000,00;85,57
3997,00;85,56
3994,00;85,55
3991,00;85,55
3988,00;85,58
3985,00;85,59
3982,00;85,58
3979,00;85,58
3976,00;85,57
3973,00;85,56
3970,00;85,57
3967,00;85,61
3964,00;85,58
3961,00;85,58
3958,00;85,59
3955,00;85,59
3952,00;85,48
3949,00;85,41
3946,00;85,46
3943,00;85,49
3940,00;85,57
3937,00;85,65
3934,00;85,41
3931,00;85,43
3928,00;85,46
3925,00;85,43
3922,00;85,35
3919,00;85,33
3916,00;85,57
3913,00;85,76
3910,00;85,73
3907,00;85,19
3904,00;84,66
3901,00;84,79
3898,00;85,51
3895,00;85,52
3892,00;85,26
3889,00;85,18
3886,00;85,23
3883,00;85,06
3880,00;85,38
3877,00;85,34
3874,00;85,20
3871,00;84,61
3868,00;84,91
3865,00;85,08
3862,00;85,25
3859,00;85,39
3856,00;84,23
3853,00;84,05
3850,00;84,94
3847,00;85,74
3844,00;85,30
3841,00;84,62
3838,00;84,46
3835,00;84,79
3832,00;85,37
3829,00;85,48
3826,00;85,46
3823,00;84,68
3820,00;84,76
3817,00;84,81
3814,00;85,47
3811,00;85,78
3808,00;85,29
3805,00;85,03
3802,00;84,85
3799,00;84,94
3796,00;85,63
3793,00;85,89
3790,00;86,05
3787,00;85,87
3784,00;85,78
3781,00;85,57
3778,00;85,77
3775,00;85,97
3772,00;85,67
3769,00;85,53
3766,00;85,65
3763,00;85,74
3760,00;85,51
3757,00;85,38
3754,00;84,82
3751,00;84,20
3748,00;84,37
3745,00;84,60
3742,00;85,22
3739,00;85,29
3736,00;84,51
3733,00;84,90
3730,00;85,62
3727,00;85,74
3724,00;85,63
3721,00;85,80
3718,00;85,99
3715,00;85,66
3712,00;85,11
3709,00;85,45
3706,00;86,05
3703,00;85,95
3700,00;86,05
3697,00;86,25
3694,00;85,94
3691,00;85,15
3688,00;85,35
3685,00;86,03
3682,00;86,26
3679,00;85,54
3676,00;84,79
3673,00;84,99
3670,00;85,54
3667,00;85,98
3664,00;86,53
3661,00;86,41
3658,00;85,96
3655,00;85,96
3652,00;85,25
3649,00;84,81
3646,00;85,60
3643,00;86,35
3640,00;86,37
3637,00;86,25
3634,00;86,06
3631,00;85,28
3628,00;85,62
3625,00;86,19
3622,00;86,05
3619,00;85,70
3616,00;85,73
3613,00;85,82
3610,00;85,77
3607,00;86,18
3604,00;86,33
3601,00;86,22
3598,00;86,05
3595,00;86,09
3592,00;86,16
3589,00;85,87
3586,00;86,13
3583,00;86,46
3580,00;86,50
3577,00;86,45
3574,00;86,46
3571,00;86,24
3568,00;85,79
3565,00;86,06
3562,00;86,37
3559,00;86,50
3556,00;86,50
3553,00;86,41
3550,00;86,35
3547,00;86,28
3544,00;86,41
3541,00;86,56
3538,00;86,57
3535,00;86,57
3532,00;86,53
3529,00;86,41
3526,00;86,36
3523,00;86,47
3520,00;86,57
3517,00;86,63
3514,00;86,63
3511,00;86,55
3508,00;86,56
3505,00;86,52
3502,00;86,53
3499,00;86,64
3496,00;86,68
3493,00;86,68
3490,00;86,68
3487,00;86,68
3484,00;86,66
3481,00;86,68
3478,00;86,73
3475,00;86,75
3472,00;86,76
3469,00;86,76
3466,00;86,76
3463,00;86,75
3460,00;86,75
3457,00;86,79
3454,00;86,81
3451,00;86,78
3448,00;86,70
3445,00;86,71
3442,00;86,78
3439,00;86,81
3436,00;86,84
3433,00;86,84
3430,00;86,84
3427,00;86,83
3424,00;86,82
3421,00;86,79
3418,00;86,82
3415,00;86,86
3412,00;86,86
3409,00;86,86
3406,00;86,87
3403,00;86,87
3400,00;86,86
3397,00;86,86
3394,00;86,85
3391,00;86,86
3388,00;86,88
3385,00;86,88
3382,00;86,89
3379,00;86,90
3376,00;86,91
3373,00;86,91
3370,00;86,91
3367,00;86,90
3364,00;86,90
3361,00;86,92
3358,00;86,92
3355,00;86,92
3352,00;86,94
3349,00;86,95
3346,00;86,96
3343,00;86,96
3340,00;86,97
3337,00;86,95
3334,00;86,96
3331,00;86,97
3328,00;86,98
3325,00;86,98
3322,00;87,00
3319,00;87,01
3316,00;87,01
3313,00;87,01
3310,00;87,00
3307,00;87,02
3304,00;87,04
3301,00;87,04
3298,00;87,05
3295,00;87,05
3292,00;87,05
3289,00;87,06
3286,00;87,07
3283,00;87,08
3280,00;87,07
3277,00;87,07
3274,00;87,08
3271,00;87,11
3268,00;87,12
3265,00;87,12
3262,00;87,13
3259,00;87,13
3256,00;87,13
3253,00;87,13
3250,00;87,16
3247,00;87,16
3244,00;87,16
3241,00;87,17
3238,00;87,19
3235,00;87,20
3232,00;87,20
3229,00;87,19
3226,00;87,21
3223,00;87,21
3220,00;87,20
3217,00;87,21
3214,00;87,21
3211,00;87,21
3208,00;87,24
3205,00;87,26
3202,00;87,26
3199,00;87,25
3196,00;87,24
3193,00;87,25
3190,00;87,28
3187,00;87,27
3184,00;87,27
3181,00;87,26
3178,00;87,26
3175,00;87,28
3172,00;87,30
3169,00;87,30
3166,00;87,30
3163,00;87,30
3160,00;87,30
3157,00;87,30
3154,00;87,31
3151,00;87,32
3148,00;87,31
3145,00;87,32
3142,00;87,33
3139,00;87,34
3136,00;87,33
3133,00;87,32
3130,00;87,33
3127,00;87,34
3124,00;87,32
3121,00;87,34
3118,00;87,35
3115,00;87,35
3112,00;87,35
3109,00;87,37
3106,00;87,37
3103,00;87,36
3100,00;87,37
3097,00;87,37
3094,00;87,38
3091,00;87,41
3088,00;87,42
3085,00;87,43
3082,00;87,42
3079,00;87,41
3076,00;87,43
3073,00;87,44
3070,00;87,44
3067,00;87,43
3064,00;87,42
3061,00;87,45
3058,00;87,45
3055,00;87,47
3052,00;87,48
3049,00;87,49
3046,00;87,51
3043,00;87,51
3040,00;87,50
3037,00;87,51
3034,00;87,50
3031,00;87,50
3028,00;87,52
3025,00;87,52
3022,00;87,53
3019,00;87,55
3016,00;87,57
3013,00;87,59
3010,00;87,59
3007,00;87,59
3004,00;87,58
3001,00;87,58
2998,00;87,58
2995,00;87,57
2992,00;87,56
2989,00;87,55
2986,00;87,55
2983,00;87,55
2980,00;87,56
2977,00;87,56
2974,00;87,55
2971,00;87,56
2968,00;87,58
2965,00;87,62
2962,00;87,65
2959,00;87,67
2956,00;87,70
2953,00;87,70
2950,00;87,70
2947,00;87,71
2944,00;87,71
2941,00;87,72
2938,00;87,76
2935,00;87,83
2932,00;87,88
2929,00;87,94
2926,00;87,98
2923,00;88,03
2920,00;88,05
2917,00;88,01
2914,00;87,96
2911,00;87,90
2908,00;87,87
2905,00;87,85
2902,00;87,84
2899,00;87,83
2896,00;87,83
2893,00;87,83
2890,00;87,81
2887,00;87,80
2884,00;87,80
2881,00;87,80
2878,00;87,79
2875,00;87,80
2872,00;87,81
2869,00;87,80
2866,00;87,80
2863,00;87,85
2860,00;87,94
2857,00;88,03
2854,00;88,07
2851,00;88,06
2848,00;88,03
2845,00;87,99
2842,00;87,95
2839,00;87,95
2836,00;87,94
2833,00;87,93
2830,00;87,93
2827,00;87,94
2824,00;87,94
2821,00;87,94
2818,00;87,94
2815,00;87,94
2812,00;87,96
2809,00;87,97
2806,00;87,97
2803,00;87,97
2800,00;87,99
2797,00;88,00
2794,00;87,99
2791,00;88,00
2788,00;88,01
2785,00;88,02
2782,00;88,02
2779,00;88,02
2776,00;88,03
2773,00;88,05
2770,00;88,05
2767,00;88,06
2764,00;88,07
2761,00;88,07
2758,00;88,08
2755,00;88,09
2752,00;88,10
2749,00;88,11
2746,00;88,11
2743,00;88,12
2740,00;88,13
2737,00;88,14
2734,00;88,14
2731,00;88,15
2728,00;88,17
2725,00;88,18
2722,00;88,18
2719,00;88,19
2716,00;88,20
2713,00;88,21
2710,00;88,21
2707,00;88,22
2704,00;88,23
2701,00;88,24
2698,00;88,25
2695,00;88,26
2692,00;88,26
2689,00;88,27
2686,00;88,28
2683,00;88,29
2680,00;88,30
2677,00;88,31
2674,00;88,32
2671,00;88,32
2668,00;88,33
2665,00;88,33
2662,00;88,31
2659,00;88,29
2656,00;88,29
2653,00;88,30
2650,00;88,31
2647,00;88,33
2644,00;88,35
2641,00;88,37
2638,00;88,39
2635,00;88,40
2632,00;88,42
2629,00;88,44
2626,00;88,47
2623,00;88,49
2620,00;88,51
2617,00;88,52
2614,00;88,54
2611,00;88,57
2608,00;88,59
2605,00;88,60
2602,00;88,62
2599,00;88,64
2596,00;88,65
2593,00;88,67
2590,00;88,70
2587,00;88,71
2584,00;88,71
2581,00;88,74
2578,00;88,76
2575,00;88,77
2572,00;88,79
2569,00;88,79
2566,00;88,80
2563,00;88,82
2560,00;88,84
2557,00;88,85
2554,00;88,87
2551,00;88,89
2548,00;88,90
2545,00;88,90
2542,00;88,91
2539,00;88,92
2536,00;88,94
2533,00;88,95
2530,00;88,97
2527,00;88,97
2524,00;88,98
2521,00;88,99
2518,00;89,00
2515,00;89,02
2512,00;89,04
2509,00;89,04
2506,00;89,04
2503,00;89,07
2500,00;89,07
2497,00;89,08
2494,00;89,10
2491,00;89,10
2488,00;89,11
2485,00;89,12
2482,00;89,13
2479,00;89,13
2476,00;89,15
2473,00;89,16
2470,00;89,16
2467,00;89,17
2464,00;89,18
2461,00;89,18
2458,00;89,18
2455,00;89,18
2452,00;89,19
2449,00;89,21
2446,00;89,21
2443,00;89,23
2440,00;89,25
2437,00;89,26
2434,00;89,28
2431,00;89,30
2428,00;89,31
2425,00;89,32
2422,00;89,34
2419,00;89,35
2416,00;89,36
2413,00;89,37
2410,00;89,37
2407,00;89,39
2404,00;89,42
2401,00;89,42
2398,00;89,43
2395,00;89,44
2392,00;89,44
2389,00;89,46
2386,00;89,45
2383,00;89,44
2380,00;89,46
2377,00;89,51
2374,00;89,54
2371,00;89,53
2368,00;89,51
2365,00;89,52
2362,00;89,55
2359,00;89,65
2356,00;89,80
2353,00;89,71
2350,00;89,60
2347,00;89,42
2344,00;89,33
2341,00;89,55
2338,00;89,64
2335,00;89,72
2332,00;89,75
2329,00;89,76
2326,00;89,68
2323,00;89,54
2320,00;89,66
2317,00;89,70
2314,00;89,65
2311,00;89,63
2308,00;89,63
2305,00;89,61
2302,00;89,59
2299,00;89,58
2296,00;89,57
2293,00;89,56
2290,00;89,54
2287,00;89,53
2284,00;89,55
2281,00;89,58
2278,00;89,61
2275,00;89,65
2272,00;89,69
2269,00;89,71
2266,00;89,69
2263,00;89,74
2260,00;89,76
2257,00;89,75
2254,00;89,80
2251,00;89,84
2248,00;89,86
2245,00;89,83
2242,00;89,86
2239,00;89,88
2236,00;89,88
2233,00;89,88
2230,00;89,89
2227,00;89,91
2224,00;89,93
2221,00;89,95
2218,00;89,97
2215,00;89,98
2212,00;89,97
2209,00;89,99
2206,00;90,04
2203,00;90,00
2200,00;89,98
2197,00;90,02
2194,00;90,02
2191,00;89,96
2188,00;89,95
2185,00;89,97
2182,00;90,08
2179,00;90,13
2176,00;90,16
2173,00;90,21
2170,00;90,13
2167,00;90,06
2164,00;89,99
2161,00;89,93
2158,00;90,45
2155,00;90,72
2152,00;90,61
2149,00;90,51
2146,00;90,52
2143,00;90,50
2140,00;90,50
2137,00;90,49
2134,00;90,61
2131,00;90,65
2128,00;90,52
2125,00;90,48
2122,00;90,47
2119,00;90,41
2116,00;90,38
2113,00;90,34
2110,00;90,35
2107,00;90,36
2104,00;90,39
2101,00;90,39
2098,00;90,39
2095,00;90,45
2092,00;90,48
2089,00;90,46
2086,00;90,43
2083,00;90,41
2080,00;90,40
2077,00;90,41
2074,00;90,42
2071,00;90,42
2068,00;90,47
2065,00;90,51
2062,00;90,49
2059,00;90,48
2056,00;90,47
2053,00;90,45
2050,00;90,25
2047,00;90,43
2044,00;90,56
2041,00;90,58
2038,00;90,53
2035,00;90,57
2032,00;90,65
2029,00;90,70
2026,00;90,73
2023,00;90,75
2020,00;90,76
2017,00;90,82
2014,00;90,86
2011,00;90,84
2008,00;90,87
2005,00;90,99
2002,00;90,94
1999,00;90,88
1996,00;90,85
1993,00;90,80
1990,00;90,78
1987,00;90,78
1984,00;90,73
1981,00;90,64
1978,00;90,73
1975,00;91,00
1972,00;91,01
1969,00;91,05
1966,00;91,07
1963,00;91,07
1960,00;91,09
1957,00;91,13
1954,00;91,07
1951,00;91,06
1948,00;91,08
1945,00;91,08
1942,00;91,10
1939,00;91,12
1936,00;91,09
1933,00;91,10
1930,00;91,10
1927,00;91,11
1924,00;91,10
1921,00;91,09
1918,00;91,10
1915,00;91,10
1912,00;91,10
1909,00;91,10
1906,00;91,12
1903,00;91,13
1900,00;91,14
1897,00;91,13
1894,00;91,15
1891,00;91,13
1888,00;91,13
1885,00;91,15
1882,00;91,16
1879,00;91,17
1876,00;91,17
1873,00;91,17
1870,00;91,18
1867,00;91,20
1864,00;91,21
1861,00;91,20
1858,00;91,22
1855,00;91,22
1852,00;91,22
1849,00;91,23
1846,00;91,24
1843,00;91,25
1840,00;91,27
1837,00;91,26
1834,00;91,26
1831,00;91,26
1828,00;91,27
1825,00;91,28
1822,00;91,28
1819,00;91,29
1816,00;91,33
1813,00;91,29
1810,00;91,28
1807,00;91,29
1804,00;91,27
1801,00;91,26
1798,00;91,27
1795,00;91,29
1792,00;91,30
1789,00;91,31
1786,00;91,29
1783,00;91,28
1780,00;91,29
1777,00;91,31
1774,00;91,31
1771,00;91,30
1768,00;91,33
1765,00;91,30
1762,00;91,31
1759,00;91,30
1756,00;91,30
1753,00;91,28
1750,00;91,25
1747,00;91,29
1744,00;91,26
1741,00;91,24
1738,00;91,21
1735,00;91,20
1732,00;91,19
1729,00;91,24
1726,00;91,21
1723,00;91,22
1720,00;91,24
1717,00;91,25
1714,00;91,32
1711,00;91,34
1708,00;91,33
1705,00;91,35
1702,00;91,40
1699,00;91,38
1696,00;91,46
1693,00;91,40
1690,00;91,43
1687,00;91,46
1684,00;91,45
1681,00;91,50
1678,00;91,53
1675,00;91,51
1672,00;91,51
1669,00;91,54
1666,00;91,54
1663,00;91,52
1660,00;91,53
1657,00;91,53
1654,00;91,52
1651,00;91,47
1648,00;91,53
1645,00;91,54
1642,00;91,53
1639,00;91,52
1636,00;91,55
1633,00;91,55
1630,00;91,56
1627,00;91,56
1624,00;91,56
1621,00;91,57
1618,00;91,59
1615,00;91,55
1612,00;91,59
1609,00;91,61
1606,00;91,65
1603,00;91,67
1600,00;91,70
1597,00;91,73
1594,00;91,76
1591,00;91,79
1588,00;91,81
1585,00;91,81
1582,00;91,81
1579,00;91,80
1576,00;91,77
1573,00;91,77
1570,00;91,76
1567,00;91,74
1564,00;91,73
1561,00;91,75
1558,00;91,72
1555,00;91,75
1552,00;91,72
1549,00;91,74
1546,00;91,73
1543,00;91,73
1540,00;91,75
1537,00;91,73
1534,00;91,75
1531,00;91,76
1528,00;91,77
1525,00;91,78
1522,00;91,80
1519,00;91,79
1516,00;91,80
1513,00;91,80
1510,00;91,79
1507,00;91,86
1504,00;91,85
1501,00;91,84
1498,00;91,81
1495,00;91,88
1492,00;91,97
1489,00;92,01
1486,00;92,01
1483,00;91,98
1480,00;91,97
1477,00;91,96
1474,00;91,98
1471,00;92,01
1468,00;92,00
1465,00;91,99
1462,00;91,99
1459,00;92,00
1456,00;92,00
1453,00;92,01
1450,00;92,04
1447,00;92,07
1444,00;92,05
1441,00;92,05
1438,00;92,08
1435,00;92,08
1432,00;92,08
1429,00;92,08
1426,00;92,09
1423,00;92,10
1420,00;92,11
1417,00;92,10
1414,00;92,13
1411,00;92,11
1408,00;92,11
1405,00;92,12
1402,00;92,16
1399,00;92,17
1396,00;92,19
1393,00;92,19
1390,00;92,20
1387,00;92,19
1384,00;92,21
1381,00;92,22
1378,00;92,23
1375,00;92,24
1372,00;92,26
1369,00;92,27
1366,00;92,28
1363,00;92,29
1360,00;92,31
1357,00;92,31
1354,00;92,32
1351,00;92,33
1348,00;92,34
1345,00;92,35
1342,00;92,36
1339,00;92,37
1336,00;92,39
1333,00;92,40
1330,00;92,42
1327,00;92,43
1324,00;92,43
1321,00;92,45
1318,00;92,47
1315,00;92,48
1312,00;92,49
1309,00;92,50
1306,00;92,52
1303,00;92,52
1300,00;92,53
1297,00;92,55
1294,00;92,56
1291,00;92,57
1288,00;92,59
1285,00;92,61
1282,00;92,63
1279,00;92,64
1276,00;92,65
1273,00;92,67
1270,00;92,68
1267,00;92,69
1264,00;92,71
1261,00;92,72
1258,00;92,73
1255,00;92,73
1252,00;92,72
1249,00;92,72
1246,00;92,73
1243,00;92,73
1240,00;92,74
1237,00;92,75
1234,00;92,74
1231,00;92,75
1228,00;92,76
1225,00;92,77
1222,00;92,78
1219,00;92,79
1216,00;92,81
1213,00;92,82
1210,00;92,83
1207,00;92,84
1204,00;92,85
1201,00;92,86
1198,00;92,87
1195,00;92,87
1192,00;92,88
1189,00;92,88
1186,00;92,89
1183,00;92,90
1180,00;92,91
1177,00;92,92
1174,00;92,93
1171,00;92,93
1168,00;92,94
1165,00;92,94
1162,00;92,95
1159,00;92,96
1156,00;92,96
1153,00;92,97
1150,00;92,98
1147,00;92,99
1144,00;93,00
1141,00;93,00
1138,00;93,01
1135,00;93,03
1132,00;93,03
1129,00;93,05
1126,00;93,06
1123,00;93,06
1120,00;93,07
1117,00;93,08
1114,00;93,10
1111,00;93,10
1108,00;93,11
1105,00;93,13
1102,00;93,13
1099,00;93,13
1096,00;93,14
1093,00;93,15
1090,00;93,15
1087,00;93,16
1084,00;93,18
1081,00;93,19
1078,00;93,20
1075,00;93,21
1072,00;93,23
1069,00;93,25
1066,00;93,26
1063,00;93,28
1060,00;93,29
1057,00;93,30
1054,00;93,30
1051,00;93,33
1048,00;93,38
1045,00;93,40
1042,00;93,41
1039,00;93,43
1036,00;93,44
1033,00;93,46
1030,00;93,47
1027,00;93,48
1024,00;93,49
1021,00;93,51
1018,00;93,54
1015,00;93,55
1012,00;93,57
1009,00;93,58
1006,00;93,60
1003,00;93,61
1000,00;93,63
997,00;93,66
994,00;93,67
991,00;93,68
988,00;93,69
985,00;93,71
982,00;93,73
979,00;93,74
976,00;93,76
973,00;93,78
970,00;93,79
967,00;93,80
964,00;93,82
961,00;93,84
958,00;93,85
955,00;93,87
952,00;93,89
949,00;93,91
946,00;93,92
943,00;93,94
940,00;93,94
937,00;93,96
934,00;93,98
931,00;93,99
928,00;94,01
925,00;94,02
922,00;94,04
919,00;94,05
916,00;94,06
913,00;94,08
910,00;94,09
907,00;94,10
904,00;94,11
901,00;94,12
898,00;94,13
895,00;94,14
892,00;94,15
889,00;94,17
886,00;94,17
883,00;94,18
880,00;94,20
877,00;94,22
874,00;94,23
871,00;94,24
868,00;94,24
865,00;94,26
862,00;94,28
859,00;94,28
856,00;94,30
853,00;94,31
850,00;94,32
847,00;94,32
844,00;94,34
841,00;94,35
838,00;94,37
835,00;94,38
832,00;94,39
829,00;94,41
826,00;94,42
823,00;94,46
820,00;94,48
817,00;94,49
814,00;94,49
811,00;94,50
808,00;94,51
805,00;94,53
802,00;94,54
799,00;94,56
796,00;94,57
793,00;94,58
790,00;94,59
787,00;94,60
784,00;94,61
781,00;94,63
778,00;94,65
775,00;94,67
772,00;94,68
769,00;94,69
766,00;94,71
763,00;94,72
760,00;94,73
757,00;94,75
754,00;94,77
751,00;94,78
748,00;94,80
745,00;94,81
742,00;94,83
739,00;94,84
736,00;94,86
733,00;94,88
730,00;94,89
727,00;94,90
724,00;94,91
721,00;94,93
718,00;94,94
715,00;94,96
712,00;94,98
709,00;95,00
706,00;95,02
703,00;95,03
700,00;95,04
697,00;95,05
694,00;95,07
691,00;95,08
688,00;95,10
685,00;95,11
682,00;95,11
679,00;95,13
676,00;95,15
673,00;95,16
670,00;95,29
667,00;95,37
664,00;95,22
661,00;95,23
658,00;95,25
655,00;95,27
652,00;95,29
649,00;95,31
646,00;95,32
643,00;95,34
640,00;95,36
637,00;95,38
634,00;95,40
631,00;95,41
628,00;95,43
625,00;95,44
622,00;95,46
619,00;95,48
616,00;95,50
613,00;95,51
610,00;95,54
607,00;95,56
604,00;95,57
601,00;95,59
598,00;95,61
595,00;95,62
592,00;95,65
589,00;95,67
586,00;95,68
583,00;95,69
580,00;95,72
577,00;95,73
574,00;95,74
571,00;95,76
568,00;95,76
565,00;95,79
562,00;95,82
559,00;95,82
556,00;95,83
553,00;95,85
550,00;95,87
547,00;95,88
544,00;95,89
541,00;95,91
538,00;95,93
535,00;95,95
532,00;95,96
529,00;95,98
526,00;95,99
523,00;95,98
520,00;95,99
517,00;96,01
514,00;96,03
511,00;96,04
508,00;96,06
505,00;96,08
502,00;96,11
499,00;96,11
496,00;96,13
493,00;96,14
490,00;96,16
487,00;96,16
484,00;96,17
481,00;96,20
478,00;96,21
475,00;96,22
472,00;96,27
469,00;96,27
466,00;96,26
463,00;96,29
460,00;96,29
457,00;96,33
454,00;96,37
451,00;96,38
450,00;96,40