File: data/raw_data/ir/20170922_ATR-IR_Gr-NH2/Administrator 1001_148.csv
Created as New Dataset;Sample 1001 By Administrator Date fredag, september 22 2017
cm-1;%T
4000,00;85,57
3997,00;85,55
3994,00;85,53
3991,00;85,52
3988,00;85,54
3985,00;85,54
3982,00;85,52
3979,00;85,51
3976,00;85,49
3973,00;85,47
3970,00;85,47
3967,00;85,50
3964,00;85,46
3961,00;85,45
3958,00;85,45
3955,00;85,44
3952,00;85,32
3949,00;85,24
3946,00;85,27
3943,00;85,30
3940,00;85,37
3937,00;85,44
3934,00;85,18
3931,00;85,20
3928,00;85,22
3925,00;85,17
3922,00;85,08
3919,00;85,05
3916,00;85,29
3913,00;85,47
3910,00;85,43
3907,00;84,86
3904,00;84,32
3901,00;84,43
3898,00;85,16
3895,00;85,16
3892,00;84,88
3889,00;84,79
3886,00;84,83
3883,00;84,65
3880,00;84,96
3877,00;84,91
3874,00;84,75
3871,00;84,14
3868,00;84,44
3865,00;84,61
3862,00;84,76
3859,00;84,90
3856,00;83,69
3853,00;83,50
3850,00;84,40
3847,00;85,22
3844,00;84,75
3841,00;84,03
3838,00;83,86
3835,00;84,19
3832,00;84,78
3829,00;84,88
3826,00;84,85
3823,00;84,03
3820,00;84,11
3817,00;84,15
3814,00;84,82
3811,00;85,13
3808,00;84,61
3805,00;84,32
3802,00;84,13
3799,00;84,21
3796,00;84,92
3793,00;85,18
3790,00;85,34
3787,00;85,13
3784,00;85,03
3781,00;84,81
3778,00;85,00
3775,00;85,20
3772,00;84,88
3769,00;84,71
3766,00;84,83
3763,00;84,92
3760,00;84,66
3757,00;84,51
3754,00;83,91
3751,00;83,25
3748,00;83,41
3745,00;83,64
3742,00;84,28
3739,00;84,35
3736,00;83,52
3733,00;83,92
3730,00;84,67
3727,00;84,78
3724,00;84,65
3721,00;84,82
3718,00;85,01
3715,00;84,65
3712,00;84,05
3709,00;84,40
3706,00;85,03
3703,00;84,91
3700,00;85,01
3697,00;85,21
3694,00;84,86
3691,00;84,02
3688,00;84,21
3685,00;84,93
3682,00;85,17
3679,00;84,39
3676,00;83,56
3673,00;83,76
3670,00;84,35
3667,00;84,80
3664,00;85,39
3661,00;85,25
3658,00;84,75
3655,00;84,74
3652,00;83,97
3649,00;83,47
3646,00;84,32
3643,00;85,12
3640,00;85,13
3637,00;84,99
3634,00;84,77
3631,00;83,91
3628,00;84,26
3625,00;84,87
3622,00;84,72
3619,00;84,32
3616,00;84,34
3613,00;84,43
3610,00;84,36
3607,00;84,80
3604,00;84,95
3601,00;84,81
3598,00;84,62
3595,00;84,65
3592,00;84,72
3589,00;84,39
3586,00;84,66
3583,00;85,00
3580,00;85,04
3577,00;84,97
3574,00;84,97
3571,00;84,72
3568,00;84,21
3565,00;84,50
3562,00;84,83
3559,00;84,96
3556,00;84,95
3553,00;84,84
3550,00;84,76
3547,00;84,67
3544,00;84,80
3541,00;84,96
3538,00;84,95
3535,00;84,94
3532,00;84,89
3529,00;84,74
3526,00;84,67
3523,00;84,78
3520,00;84,88
3517,00;84,94
3514,00;84,93
3511,00;84,83
3508,00;84,82
3505,00;84,77
3502,00;84,77
3499,00;84,87
3496,00;84,91
3493,00;84,91
3490,00;84,89
3487,00;84,87
3484,00;84,84
3481,00;84,85
3478,00;84,89
3475,00;84,91
3472,00;84,90
3469,00;84,89
3466,00;84,88
3463,00;84,86
3460,00;84,85
3457,00;84,88
3454,00;84,89
3451,00;84,85
3448,00;84,74
3445,00;84,74
3442,00;84,81
3439,00;84,83
3436,00;84,85
3433,00;84,83
3430,00;84,82
3427,00;84,81
3424,00;84,78
3421,00;84,73
3418,00;84,75
3415,00;84,79
3412,00;84,78
3409,00;84,77
3406,00;84,76
3403,00;84,75
3400,00;84,72
3397,00;84,71
3394,00;84,69
3391,00;84,69
3388,00;84,70
3385,00;84,68
3382,00;84,68
3379,00;84,69
3376,00;84,68
3373,00;84,68
3370,00;84,66
3367,00;84,63
3364,00;84,62
3361,00;84,63
3358,00;84,62
3355,00;84,61
3352,00;84,62
3349,00;84,62
3346,00;84,61
3343,00;84,61
3340,00;84,60
3337,00;84,57
3334,00;84,56
3331,00;84,56
3328,00;84,56
3325,00;84,56
3322,00;84,56
3319,00;84,56
3316,00;84,55
3313,00;84,53
3310,00;84,51
3307,00;84,52
3304,00;84,53
3301,00;84,52
3298,00;84,51
3295,00;84,50
3292,00;84,49
3289,00;84,50
3286,00;84,49
3283,00;84,49
3280,00;84,47
3277,00;84,45
3274,00;84,45
3271,00;84,47
3268,00;84,47
3265,00;84,45
3262,00;84,46
3259,00;84,44
3256,00;84,43
3253,00;84,42
3250,00;84,44
3247,00;84,42
3244,00;84,41
3241,00;84,41
3238,00;84,42
3235,00;84,42
3232,00;84,40
3229,00;84,39
3226,00;84,39
3223,00;84,37
3220,00;84,35
3217,00;84,35
3214,00;84,34
3211,00;84,33
3208,00;84,35
3205,00;84,36
3202,00;84,35
3199,00;84,32
3196,00;84,29
3193,00;84,30
3190,00;84,31
3187,00;84,29
3184,00;84,27
3181,00;84,26
3178,00;84,24
3175,00;84,25
3172,00;84,25
3169,00;84,24
3166,00;84,23
3163,00;84,21
3160,00;84,20
3157,00;84,19
3154,00;84,19
3151,00;84,19
3148,00;84,16
3145,00;84,16
3142,00;84,15
3139,00;84,15
3136,00;84,13
3133,00;84,10
3130,00;84,11
3127,00;84,09
3124,00;84,06
3121,00;84,07
3118,00;84,07
3115,00;84,06
3112,00;84,05
3109,00;84,06
3106,00;84,04
3103,00;84,02
3100,00;84,01
3097,00;84,00
3094,00;83,99
3091,00;84,02
3088,00;84,02
3085,00;84,01
3082,00;83,98
3079,00;83,96
3076,00;83,97
3073,00;83,97
3070,00;83,95
3067,00;83,93
3064,00;83,91
3061,00;83,92
3058,00;83,91
3055,00;83,92
3052,00;83,93
3049,00;83,92
3046,00;83,93
3043,00;83,91
3040,00;83,89
3037,00;83,88
3034,00;83,86
3031,00;83,84
3028,00;83,85
3025,00;83,84
3022,00;83,84
3019,00;83,85
3016,00;83,86
3013,00;83,87
3010,00;83,85
3007,00;83,84
3004,00;83,81
3001,00;83,79
2998,00;83,78
2995,00;83,75
2992,00;83,73
2989,00;83,70
2986,00;83,68
2983,00;83,67
2980,00;83,66
2977,00;83,65
2974,00;83,63
2971,00;83,62
2968,00;83,63
2965,00;83,67
2962,00;83,69
2959,00;83,71
2956,00;83,72
2953,00;83,71
2950,00;83,70
2947,00;83,69
2944,00;83,68
2941,00;83,68
2938,00;83,72
2935,00;83,79
2932,00;83,85
2929,00;83,91
2926,00;83,94
2923,00;83,99
2920,00;84,00
2917,00;83,94
2914,00;83,85
2911,00;83,76
2908,00;83,71
2905,00;83,67
2902,00;83,64
2899,00;83,61
2896,00;83,59
2893,00;83,57
2890,00;83,54
2887,00;83,50
2884,00;83,49
2881,00;83,47
2878,00;83,45
2875,00;83,44
2872,00;83,44
2869,00;83,42
2866,00;83,40
2863,00;83,45
2860,00;83,55
2857,00;83,66
2854,00;83,70
2851,00;83,66
2848,00;83,60
2845,00;83,53
2842,00;83,47
2839,00;83,45
2836,00;83,42
2833,00;83,39
2830,00;83,37
2827,00;83,37
2824,00;83,36
2821,00;83,34
2818,00;83,32
2815,00;83,31
2812,00;83,31
2809,00;83,31
2806,00;83,30
2803,00;83,29
2800,00;83,29
2797,00;83,29
2794,00;83,27
2791,00;83,26
2788,00;83,25
2785,00;83,25
2782,00;83,24
2779,00;83,22
2776,00;83,22
2773,00;83,23
2770,00;83,21
2767,00;83,21
2764,00;83,20
2761,00;83,19
2758,00;83,19
2755,00;83,19
2752,00;83,18
2749,00;83,18
2746,00;83,17
2743,00;83,16
2740,00;83,15
2737,00;83,15
2734,00;83,14
2731,00;83,13
2728,00;83,14
2725,00;83,13
2722,00;83,13
2719,00;83,12
2716,00;83,12
2713,00;83,11
2710,00;83,10
2707,00;83,09
2704,00;83,09
2701,00;83,09
2698,00;83,08
2695,00;83,08
2692,00;83,07
2689,00;83,06
2686,00;83,06
2683,00;83,05
2680,00;83,05
2677,00;83,05
2674,00;83,04
2671,00;83,03
2668,00;83,02
2665,00;83,00
2662,00;82,96
2659,00;82,92
2656,00;82,90
2653,00;82,89
2650,00;82,89
2647,00;82,90
2644,00;82,91
2641,00;82,92
2638,00;82,93
2635,00;82,94
2632,00;82,94
2629,00;82,95
2626,00;82,98
2623,00;82,99
2620,00;83,00
2617,00;83,00
2614,00;83,01
2611,00;83,03
2608,00;83,04
2605,00;83,04
2602,00;83,05
2599,00;83,06
2596,00;83,06
2593,00;83,07
2590,00;83,09
2587,00;83,09
2584,00;83,08
2581,00;83,10
2578,00;83,10
2575,00;83,11
2572,00;83,11
2569,00;83,10
2566,00;83,10
2563,00;83,11
2560,00;83,11
2557,00;83,12
2554,00;83,13
2551,00;83,13
2548,00;83,13
2545,00;83,11
2542,00;83,11
2539,00;83,12
2536,00;83,12
2533,00;83,12
2530,00;83,13
2527,00;83,11
2524,00;83,10
2521,00;83,11
2518,00;83,11
2515,00;83,12
2512,00;83,13
2509,00;83,10
2506,00;83,09
2503,00;83,11
2500,00;83,10
2497,00;83,08
2494,00;83,10
2491,00;83,09
2488,00;83,07
2485,00;83,07
2482,00;83,07
2479,00;83,06
2476,00;83,07
2473,00;83,07
2470,00;83,05
2467,00;83,04
2464,00;83,03
2461,00;83,02
2458,00;83,00
2455,00;82,97
2452,00;82,97
2449,00;82,98
2446,00;82,98
2443,00;82,98
2440,00;82,99
2437,00;82,99
2434,00;82,99
2431,00;83,01
2428,00;83,01
2425,00;83,01
2422,00;83,01
2419,00;83,01
2416,00;83,01
2413,00;83,00
2410,00;82,98
2407,00;83,00
2404,00;83,02
2401,00;83,01
2398,00;83,00
2395,00;82,99
2392,00;82,98
2389,00;82,98
2386,00;82,95
2383,00;82,92
2380,00;82,93
2377,00;82,98
2374,00;83,02
2371,00;82,98
2368,00;82,93
2365,00;82,92
2362,00;82,95
2359,00;83,09
2356,00;83,30
2353,00;83,15
2350,00;82,95
2347,00;82,64
2344,00;82,48
2341,00;82,82
2338,00;82,94
2335,00;83,04
2332,00;83,06
2329,00;83,06
2326,00;82,93
2323,00;82,68
2320,00;82,84
2317,00;82,89
2314,00;82,79
2311,00;82,74
2308,00;82,71
2305,00;82,67
2302,00;82,62
2299,00;82,58
2296,00;82,53
2293,00;82,50
2290,00;82,45
2287,00;82,41
2284,00;82,42
2281,00;82,46
2278,00;82,48
2275,00;82,52
2272,00;82,56
2269,00;82,57
2266,00;82,53
2263,00;82,59
2260,00;82,59
2257,00;82,56
2254,00;82,63
2251,00;82,67
2248,00;82,68
2245,00;82,61
2242,00;82,63
2239,00;82,64
2236,00;82,62
2233,00;82,60
2230,00;82,60
2227,00;82,61
2224,00;82,63
2221,00;82,63
2218,00;82,65
2215,00;82,65
2212,00;82,61
2209,00;82,61
2206,00;82,68
2203,00;82,59
2200,00;82,54
2197,00;82,57
2194,00;82,56
2191,00;82,43
2188,00;82,40
2185,00;82,41
2182,00;82,56
2179,00;82,63
2176,00;82,66
2173,00;82,72
2170,00;82,56
2167,00;82,43
2164,00;82,28
2161,00;82,16
2158,00;83,02
2155,00;83,46
2152,00;83,26
2149,00;83,05
2146,00;83,05
2143,00;83,01
2140,00;82,99
2137,00;82,94
2134,00;83,13
2131,00;83,17
2128,00;82,93
2125,00;82,83
2122,00;82,80
2119,00;82,67
2116,00;82,60
2113,00;82,50
2110,00;82,49
2107,00;82,50
2104,00;82,53
2101,00;82,51
2098,00;82,49
2095,00;82,56
2092,00;82,59
2089,00;82,53
2086,00;82,46
2083,00;82,40
2080,00;82,35
2077,00;82,35
2074,00;82,36
2071,00;82,32
2068,00;82,38
2065,00;82,43
2062,00;82,38
2059,00;82,34
2056,00;82,29
2053,00;82,23
2050,00;81,86
2047,00;82,15
2044,00;82,36
2041,00;82,37
2038,00;82,27
2035,00;82,30
2032,00;82,43
2029,00;82,50
2026,00;82,52
2023,00;82,54
2020,00;82,52
2017,00;82,62
2014,00;82,66
2011,00;82,60
2008,00;82,63
2005,00;82,84
2002,00;82,72
1999,00;82,59
1996,00;82,51
1993,00;82,40
1990,00;82,33
1987,00;82,31
1984,00;82,19
1981,00;82,00
1978,00;82,14
1975,00;82,61
1972,00;82,60
1969,00;82,66
1966,00;82,67
1963,00;82,65
1960,00;82,66
1957,00;82,71
1954,00;82,58
1951,00;82,52
1948,00;82,54
1945,00;82,52
1942,00;82,54
1939,00;82,54
1936,00;82,46
1933,00;82,45
1930,00;82,44
1927,00;82,43
1924,00;82,39
1921,00;82,34
1918,00;82,32
1915,00;82,31
1912,00;82,27
1909,00;82,25
1906,00;82,27
1903,00;82,27
1900,00;82,25
1897,00;82,22
1894,00;82,23
1891,00;82,17
1888,00;82,14
1885,00;82,15
1882,00;82,14
1879,00;82,13
1876,00;82,12
1873,00;82,09
1870,00;82,08
1867,00;82,09
1864,00;82,08
1861,00;82,04
1858,00;82,04
1855,00;82,02
1852,00;82,00
1849,00;82,00
1846,00;81,98
1843,00;81,98
1840,00;81,99
1837,00;81,94
1834,00;81,92
1831,00;81,89
1828,00;81,87
1825,00;81,87
1822,00;81,84
1819,00;81,85
1816,00;81,90
1813,00;81,79
1810,00;81,74
1807,00;81,72
1804,00;81,67
1801,00;81,62
1798,00;81,62
1795,00;81,61
1792,00;81,61
1789,00;81,60
1786,00;81,54
1783,00;81,50
1780,00;81,49
1777,00;81,49
1774,00;81,47
1771,00;81,42
1768,00;81,46
1765,00;81,37
1762,00;81,35
1759,00;81,30
1756,00;81,27
1753,00;81,21
1750,00;81,13
1747,00;81,16
1744,00;81,08
1741,00;81,01
1738,00;80,92
1735,00;80,88
1732,00;80,81
1729,00;80,89
1726,00;80,80
1723,00;80,79
1720,00;80,81
1717,00;80,78
1714,00;80,90
1711,00;80,92
1708,00;80,87
1705,00;80,89
1702,00;80,95
1699,00;80,87
1696,00;81,02
1693,00;80,85
1690,00;80,88
1687,00;80,92
1684,00;80,86
1681,00;80,95
1678,00;80,97
1675,00;80,91
1672,00;80,87
1669,00;80,92
1666,00;80,88
1663,00;80,80
1660,00;80,79
1657,00;80,77
1654,00;80,71
1651,00;80,56
1648,00;80,67
1645,00;80,67
1642,00;80,60
1639,00;80,55
1636,00;80,58
1633,00;80,56
1630,00;80,55
1627,00;80,50
1624,00;80,47
1621,00;80,47
1618,00;80,47
1615,00;80,37
1612,00;80,42
1609,00;80,42
1606,00;80,48
1603,00;80,50
1600,00;80,53
1597,00;80,55
1594,00;80,60
1591,00;80,62
1588,00;80,63
1585,00;80,61
1582,00;80,56
1579,00;80,51
1576,00;80,42
1573,00;80,37
1570,00;80,32
1567,00;80,24
1564,00;80,20
1561,00;80,21
1558,00;80,09
1555,00;80,12
1552,00;80,02
1549,00;80,04
1546,00;79,98
1543,00;79,96
1540,00;79,96
1537,00;79,87
1534,00;79,89
1531,00;79,87
1528,00;79,86
1525,00;79,86
1522,00;79,86
1519,00;79,80
1516,00;79,79
1513,00;79,74
1510,00;79,70
1507,00;79,82
1504,00;79,76
1501,00;79,71
1498,00;79,61
1495,00;79,71
1492,00;79,89
1489,00;79,95
1486,00;79,92
1483,00;79,80
1480,00;79,75
1477,00;79,69
1474,00;79,70
1471,00;79,73
1468,00;79,68
1465,00;79,61
1462,00;79,58
1459,00;79,56
1456,00;79,52
1453,00;79,52
1450,00;79,55
1447,00;79,58
1444,00;79,51
1441,00;79,46
1438,00;79,49
1435,00;79,45
1432,00;79,42
1429,00;79,38
1426,00;79,36
1423,00;79,35
1420,00;79,32
1417,00;79,27
1414,00;79,29
1411,00;79,22
1408,00;79,17
1405,00;79,17
1402,00;79,21
1399,00;79,20
1396,00;79,22
1393,00;79,18
1390,00;79,15
1387,00;79,11
1384,00;79,11
1381,00;79,10
1378,00;79,08
1375,00;79,05
1372,00;79,07
1369,00;79,05
1366,00;79,03
1363,00;79,01
1360,00;79,03
1357,00;79,00
1354,00;78,98
1351,00;78,95
1348,00;78,94
1345,00;78,92
1342,00;78,90
1339,00;78,90
1336,00;78,90
1333,00;78,89
1330,00;78,89
1327,00;78,87
1324,00;78,84
1321,00;78,85
1318,00;78,85
1315,00;78,84
1312,00;78,82
1309,00;78,81
1306,00;78,80
1303,00;78,76
1300,00;78,75
1297,00;78,75
1294,00;78,74
1291,00;78,73
1288,00;78,74
1285,00;78,75
1282,00;78,75
1279,00;78,74
1276,00;78,73
1273,00;78,72
1270,00;78,72
1267,00;78,70
1264,00;78,69
1261,00;78,68
1258,00;78,65
1255,00;78,61
1252,00;78,55
1249,00;78,50
1246,00;78,49
1243,00;78,45
1240,00;78,41
1237,00;78,39
1234,00;78,33
1231,00;78,30
1228,00;78,28
1225,00;78,25
1222,00;78,24
1219,00;78,23
1216,00;78,22
1213,00;78,21
1210,00;78,21
1207,00;78,18
1204,00;78,15
1201,00;78,14
1198,00;78,12
1195,00;78,08
1192,00;78,04
1189,00;78,00
1186,00;77,97
1183,00;77,95
1180,00;77,92
1177,00;77,93
1174,00;77,89
1171,00;77,85
1168,00;77,81
1165,00;77,78
1162,00;77,74
1159,00;77,72
1156,00;77,69
1153,00;77,66
1150,00;77,65
1147,00;77,61
1144,00;77,60
1141,00;77,55
1138,00;77,53
1135,00;77,53
1132,00;77,48
1129,00;77,46
1126,00;77,44
1123,00;77,41
1120,00;77,38
1117,00;77,36
1114,00;77,35
1111,00;77,31
1108,00;77,28
1105,00;77,28
1102,00;77,22
1099,00;77,17
1096,00;77,15
1093,00;77,12
1090,00;77,08
1087,00;77,05
1084,00;77,04
1081,00;77,03
1078,00;77,00
1075,00;76,98
1072,00;77,00
1069,00;76,97
1066,00;76,95
1063,00;76,96
1060,00;76,94
1057,00;76,92
1054,00;76,87
1051,00;76,91
1048,00;76,99
1045,00;77,00
1042,00;76,97
1039,00;76,97
1036,00;76,96
1033,00;76,95
1030,00;76,94
1027,00;76,92
1024,00;76,89
1021,00;76,88
1018,00;76,90
1015,00;76,89
1012,00;76,88
1009,00;76,88
1006,00;76,86
1003,00;76,85
1000,00;76,85
997,00;76,88
994,00;76,86
991,00;76,84
988,00;76,82
985,00;76,81
982,00;76,82
979,00;76,79
976,00;76,78
973,00;76,78
970,00;76,77
967,00;76,74
964,00;76,74
961,00;76,75
958,00;76,73
955,00;76,72
952,00;76,72
949,00;76,72
946,00;76,71
943,00;76,69
940,00;76,66
937,00;76,65
934,00;76,64
931,00;76,62
928,00;76,61
925,00;76,59
922,00;76,58
919,00;76,55
916,00;76,53
913,00;76,53
910,00;76,50
907,00;76,46
904,00;76,44
901,00;76,43
898,00;76,39
895,00;76,34
892,00;76,32
889,00;76,30
886,00;76,26
883,00;76,23
880,00;76,21
877,00;76,21
874,00;76,19
871,00;76,13
868,00;76,09
865,00;76,07
862,00;76,07
859,00;76,03
856,00;76,01
853,00;75,97
850,00;75,92
847,00;75,88
844,00;75,88
841,00;75,85
838,00;75,84
835,00;75,81
832,00;75,77
829,00;75,76
826,00;75,74
823,00;75,81
820,00;75,79
817,00;75,75
814,00;75,70
811,00;75,66
808,00;75,63
805,00;75,61
802,00;75,57
799,00;75,56
796,00;75,52
793,00;75,49
790,00;75,46
787,00;75,42
784,00;75,39
781,00;75,38
778,00;75,38
775,00;75,36
772,00;75,31
769,00;75,30
766,00;75,28
763,00;75,26
760,00;75,22
757,00;75,20
754,00;75,21
751,00;75,18
748,00;75,15
745,00;75,12
742,00;75,10
739,00;75,09
736,00;75,05
733,00;75,06
730,00;75,01
727,00;74,98
724,00;74,93
721,00;74,93
718,00;74,89
715,00;74,87
712,00;74,88
709,00;74,87
706,00;74,85
703,00;74,81
700,00;74,78
697,00;74,74
694,00;74,72
691,00;74,68
688,00;74,65
685,00;74,61
682,00;74,54
679,00;74,53
676,00;74,52
673,00;74,48
670,00;74,95
667,00;75,26
664,00;74,45
661,00;74,38
658,00;74,39
655,00;74,38
652,00;74,37
649,00;74,36
646,00;74,33
643,00;74,32
640,00;74,29
637,00;74,29
634,00;74,30
631,00;74,24
628,00;74,21
625,00;74,18
622,00;74,15
619,00;74,14
616,00;74,14
613,00;74,10
610,00;74,14
607,00;74,11
604,00;74,08
601,00;74,06
598,00;74,05
595,00;74,01
592,00;74,02
589,00;74,06
586,00;73,98
583,00;73,90
580,00;73,97
577,00;73,90
574,00;73,84
571,00;73,81
568,00;73,72
565,00;73,74
562,00;73,79
559,00;73,70
556,00;73,63
553,00;73,58
550,00;73,56
547,00;73,52
544,00;73,45
541,00;73,46
538,00;73,43
535,00;73,42
532,00;73,36
529,00;73,32
526,00;73,26
523,00;73,07
520,00;72,97
517,00;72,96
514,00;72,94
511,00;72,87
508,00;72,84
505,00;72,85
502,00;72,87
499,00;72,78
496,00;72,71
493,00;72,65
490,00;72,61
487,00;72,52
484,00;72,44
481,00;72,43
478,00;72,40
475,00;72,32
472,00;72,45
469,00;72,29
466,00;72,11
463,00;72,12
460,00;71,99
457,00;72,08
454,00;72,17
451,00;72,13
450,00;72,18