File: data/derived_data/raman/20170920_Gr-NH2_for_Radisurf/20170920 Gr-NH for Radisurf map 2/2D FWHM.txt
#XList		#YList		#IList
-39.3414	-21.065	118.484
-37.3414	-21.065	96.5586
-35.3414	-21.065	86.2904
-33.3414	-21.065	157.434
-31.3414	-21.065	163.538
-29.3414	-21.065	156.354
-27.3414	-21.065	165.986
-25.3414	-21.065	170.837
-23.3414	-21.065	1.691682
-21.3414	-21.065	178.777
-19.3414	-21.065	97.6415
-17.3414	-21.065	158.192
-15.3414	-21.065	195.523
-13.3414	-21.065	144.321
-11.3414	-21.065	193.403
-9.341423	-21.065	83.2599
-7.341423	-21.065	107.588
-5.341423	-21.065	150.102
-3.341423	-21.065	68.3979
-1.341423	-21.065	108.606
0.658577	-21.065	116.015
2.658577	-21.065	153.705
4.658577	-21.065	90.8022
6.658577	-21.065	34.9828
8.658577	-21.065	44.6177
10.6586	-21.065	75.6243
12.6586	-21.065	127.539
14.6586	-21.065	161.269
16.6586	-21.065	110.556
18.6586	-21.065	151.265
20.6586	-21.065	162.24
22.6586	-21.065	699.87
24.6586	-21.065	717.489
-38.3414	-20.065	126.364
-36.3414	-20.065	98.7473
-34.3414	-20.065	121.201
-32.3414	-20.065	128.578
-30.3414	-20.065	124.296
-28.3414	-20.065	132.777
-26.3414	-20.065	145.918
-24.3414	-20.065	139.213
-22.3414	-20.065	174.702
-20.3414	-20.065	157.251
-18.3414	-20.065	108.455
-16.3414	-20.065	176.769
-14.3414	-20.065	149.597
-12.3414	-20.065	175.64
-10.3414	-20.065	122.642
-8.341423	-20.065	126.268
-6.341423	-20.065	107.422
-4.341423	-20.065	176.047
-2.341423	-20.065	167.834
-0.341423	-20.065	122.219
1.658577	-20.065	99.5474
3.658577	-20.065	84.6469
5.658577	-20.065	68.5177
7.658577	-20.065	0.639823
9.658577	-20.065	106.857
11.6586	-20.065	86.1005
13.6586	-20.065	157.706
15.6586	-20.065	151.736
17.6586	-20.065	148.883
19.6586	-20.065	153.897
21.6586	-20.065	186.364
23.6586	-20.065	2595.12
-39.3414	-19.065	133.238
-37.3414	-19.065	117.169
-35.3414	-19.065	123.996
-33.3414	-19.065	104.903
-31.3414	-19.065	170.247
-29.3414	-19.065	150.365
-27.3414	-19.065	135.139
-25.3414	-19.065	150.422
-23.3414	-19.065	152.888
-21.3414	-19.065	139.589
-19.3414	-19.065	146.522
-17.3414	-19.065	185.414
-15.3414	-19.065	173.997
-13.3414	-19.065	159.075
-11.3414	-19.065	176.012
-9.341423	-19.065	117.775
-7.341423	-19.065	124.921
-5.341423	-19.065	118.715
-3.341423	-19.065	161.315
-1.341423	-19.065	113.045
0.658577	-19.065	92.2583
2.658577	-19.065	101.061
4.658577	-19.065	108.497
6.658577	-19.065	52.519
8.658577	-19.065	178.861
10.6586	-19.065	99.2475
12.6586	-19.065	180.534
14.6586	-19.065	178.716
16.6586	-19.065	158.32
18.6586	-19.065	138.947
20.6586	-19.065	188.05
22.6586	-19.065	264.427
24.6586	-19.065	54.1873
-38.3414	-18.065	143.649
-36.3414	-18.065	116.681
-34.3414	-18.065	140.019
-32.3414	-18.065	175.458
-30.3414	-18.065	163.076
-28.3414	-18.065	152.519
-26.3414	-18.065	153.016
-24.3414	-18.065	146.62
-22.3414	-18.065	156.867
-20.3414	-18.065	139.852
-18.3414	-18.065	173.77
-16.3414	-18.065	158.861
-14.3414	-18.065	167.286
-12.3414	-18.065	158.612
-10.3414	-18.065	144.63
-8.341423	-18.065	128.541
-6.341423	-18.065	140.521
-4.341423	-18.065	147.823
-2.341423	-18.065	116.29
-0.341423	-18.065	122.586
1.658577	-18.065	91.1968
3.658577	-18.065	94.2874
5.658577	-18.065	173.833
7.658577	-18.065	175.865
9.658577	-18.065	152.522
11.6586	-18.065	177.402
13.6586	-18.065	173.93
15.6586	-18.065	147.447
17.6586	-18.065	135.993
19.6586	-18.065	151.437
21.6586	-18.065	173.308
23.6586	-18.065	161.821
-39.3414	-17.065	142.91
-37.3414	-17.065	179.119
-35.3414	-17.065	125.431
-33.3414	-17.065	140.625
-31.3414	-17.065	145.806
-29.3414	-17.065	142.889
-27.3414	-17.065	146.865
-25.3414	-17.065	155.254
-23.3414	-17.065	154.879
-21.3414	-17.065	174.888
-19.3414	-17.065	144.081
-17.3414	-17.065	170.27
-15.3414	-17.065	165.527
-13.3414	-17.065	163.946
-11.3414	-17.065	157.515
-9.341423	-17.065	125.058
-7.341423	-17.065	180.872
-5.341423	-17.065	170.331
-3.341423	-17.065	120.757
-1.341423	-17.065	142.454
0.658577	-17.065	123.711
2.658577	-17.065	135.946
4.658577	-17.065	150.511
6.658577	-17.065	141.832
8.658577	-17.065	160.378
10.6586	-17.065	159.207
12.6586	-17.065	173.325
14.6586	-17.065	132.599
16.6586	-17.065	165.89
18.6586	-17.065	87.8794
20.6586	-17.065	200.133
22.6586	-17.065	184.028
24.6586	-17.065	187.721
-38.3414	-16.065	176.568
-36.3414	-16.065	151.143
-34.3414	-16.065	188.235
-32.3414	-16.065	171.976
-30.3414	-16.065	154.139
-28.3414	-16.065	156.472
-26.3414	-16.065	139.337
-24.3414	-16.065	150.17
-22.3414	-16.065	158.934
-20.3414	-16.065	226.094
-18.3414	-16.065	197.767
-16.3414	-16.065	124.124
-14.3414	-16.065	182.805
-12.3414	-16.065	168.912
-10.3414	-16.065	158.052
-8.341423	-16.065	131.686
-6.341423	-16.065	141.872
-4.341423	-16.065	137.344
-2.341423	-16.065	102.715
-0.341423	-16.065	174.126
1.658577	-16.065	149.683
3.658577	-16.065	89.8033
5.658577	-16.065	144.331
7.658577	-16.065	148.679
9.658577	-16.065	146.314
11.6586	-16.065	183.287
13.6586	-16.065	193.427
15.6586	-16.065	198.478
17.6586	-16.065	95.8412
19.6586	-16.065	149.877
21.6586	-16.065	124.618
23.6586	-16.065	140.182
-39.3414	-15.065	106.642
-37.3414	-15.065	186.393
-35.3414	-15.065	137.737
-33.3414	-15.065	136.353
-31.3414	-15.065	159.43
-29.3414	-15.065	171.24
-27.3414	-15.065	154.482
-25.3414	-15.065	165.979
-23.3414	-15.065	151.569
-21.3414	-15.065	165.461
-19.3414	-15.065	167.76
-17.3414	-15.065	164.601
-15.3414	-15.065	149.682
-13.3414	-15.065	167.455
-11.3414	-15.065	203.433
-9.341423	-15.065	134.082
-7.341423	-15.065	136.922
-5.341423	-15.065	143.283
-3.341423	-15.065	110.122
-1.341423	-15.065	124.371
0.658577	-15.065	131.26
2.658577	-15.065	138.821
4.658577	-15.065	127.962
6.658577	-15.065	177.4
8.658577	-15.065	143.965
10.6586	-15.065	142.855
12.6586	-15.065	188.342
14.6586	-15.065	187.192
16.6586	-15.065	160.807
18.6586	-15.065	123.761
20.6586	-15.065	161.624
22.6586	-15.065	186.771
24.6586	-15.065	215.557
-38.3414	-14.065	193.8
-36.3414	-14.065	173.125
-34.3414	-14.065	166.718
-32.3414	-14.065	137.417
-30.3414	-14.065	145.054
-28.3414	-14.065	157.934
-26.3414	-14.065	173.24
-24.3414	-14.065	149.957
-22.3414	-14.065	146.767
-20.3414	-14.065	172.43
-18.3414	-14.065	181.299
-16.3414	-14.065	163.658
-14.3414	-14.065	180.158
-12.3414	-14.065	195.275
-10.3414	-14.065	124.234
-8.341423	-14.065	110.63
-6.341423	-14.065	127.414
-4.341423	-14.065	102.89
-2.341423	-14.065	95.5769
-0.341423	-14.065	128.682
1.658577	-14.065	124.989
3.658577	-14.065	88.9821
5.658577	-14.065	132.853
7.658577	-14.065	172.432
9.658577	-14.065	165.768
11.6586	-14.065	106.66
13.6586	-14.065	183.938
15.6586	-14.065	65.3153
17.6586	-14.065	192.616
19.6586	-14.065	124.563
21.6586	-14.065	134.771
23.6586	-14.065	123.19
-39.3414	-13.065	160.905
-37.3414	-13.065	176.292
-35.3414	-13.065	135.965
-33.3414	-13.065	140.694
-31.3414	-13.065	161.128
-29.3414	-13.065	158.328
-27.3414	-13.065	163.151
-25.3414	-13.065	153.39
-23.3414	-13.065	138.396
-21.3414	-13.065	164.974
-19.3414	-13.065	127.77
-17.3414	-13.065	73.6997
-15.3414	-13.065	137.982
-13.3414	-13.065	161.778
-11.3414	-13.065	125.461
-9.341423	-13.065	113.684
-7.341423	-13.065	120.25
-5.341423	-13.065	120.795
-3.341423	-13.065	141.36
-1.341423	-13.065	127.626
0.658577	-13.065	143.092
2.658577	-13.065	106.844
4.658577	-13.065	113.497
6.658577	-13.065	149.404
8.658577	-13.065	169.533
10.6586	-13.065	131.862
12.6586	-13.065	124.064
14.6586	-13.065	144.928
16.6586	-13.065	198.053
18.6586	-13.065	128.786
20.6586	-13.065	147.698
22.6586	-13.065	154.061
24.6586	-13.065	97.167
-38.3414	-12.065	135.508
-36.3414	-12.065	135.92
-34.3414	-12.065	151.351
-32.3414	-12.065	171.673
-30.3414	-12.065	164.098
-28.3414	-12.065	159.927
-26.3414	-12.065	169.327
-24.3414	-12.065	142.203
-22.3414	-12.065	163.752
-20.3414	-12.065	89.2396
-18.3414	-12.065	90.4362
-16.3414	-12.065	86.3545
-14.3414	-12.065	138.736
-12.3414	-12.065	124.123
-10.3414	-12.065	120.273
-8.341423	-12.065	111.257
-6.341423	-12.065	153.703
-4.341423	-12.065	121.757
-2.341423	-12.065	144.524
-0.341423	-12.065	145.669
1.658577	-12.065	130.321
3.658577	-12.065	85.6498
5.658577	-12.065	99.2369
7.658577	-12.065	175.399
9.658577	-12.065	74.3425
11.6586	-12.065	114.576
13.6586	-12.065	75.9803
15.6586	-12.065	172.747
17.6586	-12.065	150.715
19.6586	-12.065	106.429
21.6586	-12.065	105.808
23.6586	-12.065	134.824
-39.3414	-11.065	137.114
-37.3414	-11.065	175.282
-35.3414	-11.065	148.332
-33.3414	-11.065	160.819
-31.3414	-11.065	165.147
-29.3414	-11.065	163.82
-27.3414	-11.065	163.125
-25.3414	-11.065	168.011
-23.3414	-11.065	147.026
-21.3414	-11.065	167.143
-19.3414	-11.065	143.175
-17.3414	-11.065	95.4421
-15.3414	-11.065	157.637
-13.3414	-11.065	116.64
-11.3414	-11.065	153.323
-9.341423	-11.065	116.497
-7.341423	-11.065	127.875
-5.341423	-11.065	134.994
-3.341423	-11.065	103.278
-1.341423	-11.065	134.951
0.658577	-11.065	133.398
2.658577	-11.065	128.306
4.658577	-11.065	93.9668
6.658577	-11.065	84.3154
8.658577	-11.065	169.381
10.6586	-11.065	12.2559
12.6586	-11.065	121.434
14.6586	-11.065	135.947
16.6586	-11.065	166.042
18.6586	-11.065	88.9071
20.6586	-11.065	80.3089
22.6586	-11.065	86.1857
24.6586	-11.065	147.886
-38.3414	-10.065	165.193
-36.3414	-10.065	148.499
-34.3414	-10.065	155.209
-32.3414	-10.065	135.948
-30.3414	-10.065	129.109
-28.3414	-10.065	134.871
-26.3414	-10.065	169.139
-24.3414	-10.065	165.757
-22.3414	-10.065	110.557
-20.3414	-10.065	183.386
-18.3414	-10.065	96.4032
-16.3414	-10.065	119.631
-14.3414	-10.065	174.283
-12.3414	-10.065	163.873
-10.3414	-10.065	161.93
-8.341423	-10.065	98.1217
-6.341423	-10.065	81.8347
-4.341423	-10.065	91.1513
-2.341423	-10.065	105.306
-0.341423	-10.065	143.604
1.658577	-10.065	141.651
3.658577	-10.065	71.7186
5.658577	-10.065	128.087
7.658577	-10.065	159.836
9.658577	-10.065	1135.7
11.6586	-10.065	2595.12
13.6586	-10.065	107.874
15.6586	-10.065	158.209
17.6586	-10.065	82.46
19.6586	-10.065	82.7303
21.6586	-10.065	80.8646
23.6586	-10.065	88.1191
-39.3414	-9.065000	128.199
-37.3414	-9.065000	157.543
-35.3414	-9.065000	166.145
-33.3414	-9.065000	133.871
-31.3414	-9.065000	171.407
-29.3414	-9.065000	162.656
-27.3414	-9.065000	168.198
-25.3414	-9.065000	155.231
-23.3414	-9.065000	208.37
-21.3414	-9.065000	123.785
-19.3414	-9.065000	155.57
-17.3414	-9.065000	137.797
-15.3414	-9.065000	144.15
-13.3414	-9.065000	141.61
-11.3414	-9.065000	168.943
-9.341423	-9.065000	177.885
-7.341423	-9.065000	85.8478
-5.341423	-9.065000	73.9267
-3.341423	-9.065000	97.0725
-1.341423	-9.065000	117.644
0.658577	-9.065000	147.673
2.658577	-9.065000	76.776
4.658577	-9.065000	102.112
6.658577	-9.065000	184.302
8.658577	-9.065000	172.873
10.6586	-9.065000	8.166258
12.6586	-9.065000	166.666
14.6586	-9.065000	99.8808
16.6586	-9.065000	100.525
18.6586	-9.065000	79.9668
20.6586	-9.065000	79.9838
22.6586	-9.065000	87.2307
24.6586	-9.065000	182.528
-38.3414	-8.065000	164.562
-36.3414	-8.065000	140.236
-34.3414	-8.065000	169.308
-32.3414	-8.065000	142.988
-30.3414	-8.065000	166.217
-28.3414	-8.065000	179.355
-26.3414	-8.065000	173.941
-24.3414	-8.065000	134.979
-22.3414	-8.065000	114.888
-20.3414	-8.065000	91.868
-18.3414	-8.065000	171.895
-16.3414	-8.065000	146.842
-14.3414	-8.065000	151.039
-12.3414	-8.065000	156.236
-10.3414	-8.065000	128.945
-8.341423	-8.065000	155.999
-6.341423	-8.065000	70.2372
-4.341423	-8.065000	77.5162
-2.341423	-8.065000	83.978
-0.341423	-8.065000	135.459
1.658577	-8.065000	102.418
3.658577	-8.065000	141.261
5.658577	-8.065000	154.829
7.658577	-8.065000	184.436
9.658577	-8.065000	1255.21
11.6586	-8.065000	82.3877
13.6586	-8.065000	105.246
15.6586	-8.065000	163.147
17.6586	-8.065000	113.351
19.6586	-8.065000	85.005
21.6586	-8.065000	72.7913
23.6586	-8.065000	110.674
-39.3414	-7.065000	172.973
-37.3414	-7.065000	158.129
-35.3414	-7.065000	167.373
-33.3414	-7.065000	168.375
-31.3414	-7.065000	177.681
-29.3414	-7.065000	176.299
-27.3414	-7.065000	165.651
-25.3414	-7.065000	189.515
-23.3414	-7.065000	100.983
-21.3414	-7.065000	88.6303
-19.3414	-7.065000	174.426
-17.3414	-7.065000	181.963
-15.3414	-7.065000	136.049
-13.3414	-7.065000	151.945
-11.3414	-7.065000	159.236
-9.341423	-7.065000	170.809
-7.341423	-7.065000	128.57
-5.341423	-7.065000	54.3463
-3.341423	-7.065000	186.728
-1.341423	-7.065000	133.871
0.658577	-7.065000	104.144
2.658577	-7.065000	143.745
4.658577	-7.065000	145.167
6.658577	-7.065000	162.562
8.658577	-7.065000	1156.52
10.6586	-7.065000	172.086
12.6586	-7.065000	199.733
14.6586	-7.065000	174.532
16.6586	-7.065000	108.067
18.6586	-7.065000	93.8393
20.6586	-7.065000	113.713
22.6586	-7.065000	106.64
24.6586	-7.065000	149.813
-38.3414	-6.065000	164.567
-36.3414	-6.065000	160.279
-34.3414	-6.065000	163.739
-32.3414	-6.065000	162.45
-30.3414	-6.065000	155.043
-28.3414	-6.065000	169.349
-26.3414	-6.065000	163.162
-24.3414	-6.065000	158.467
-22.3414	-6.065000	151.143
-20.3414	-6.065000	154.482
-18.3414	-6.065000	747.825
-16.3414	-6.065000	154.035
-14.3414	-6.065000	153.448
-12.3414	-6.065000	132.916
-10.3414	-6.065000	158.58
-8.341423	-6.065000	188.133
-6.341423	-6.065000	191.785
-4.341423	-6.065000	1113.28
-2.341423	-6.065000	103.17
-0.341423	-6.065000	20.9437
1.658577	-6.065000	511.412
3.658577	-6.065000	151.926
5.658577	-6.065000	137.185
7.658577	-6.065000	174.374
9.658577	-6.065000	120.734
11.6586	-6.065000	160.848
13.6586	-6.065000	146.34
15.6586	-6.065000	136.116
17.6586	-6.065000	94.6238
19.6586	-6.065000	89.6198
21.6586	-6.065000	106.556
23.6586	-6.065000	116.114
-39.3414	-5.065000	171.671
-37.3414	-5.065000	131.686
-35.3414	-5.065000	164.359
-33.3414	-5.065000	145.055
-31.3414	-5.065000	140.718
-29.3414	-5.065000	178.784
-27.3414	-5.065000	162.95
-25.3414	-5.065000	142.799
-23.3414	-5.065000	177.323
-21.3414	-5.065000	161.73
-19.3414	-5.065000	361.809
-17.3414	-5.065000	41.4148
-15.3414	-5.065000	163.27
-13.3414	-5.065000	170.606
-11.3414	-5.065000	136.55
-9.341423	-5.065000	169.8
-7.341423	-5.065000	166.395
-5.341423	-5.065000	183.431
-3.341423	-5.065000	178.826
-1.341423	-5.065000	160.783
0.658577	-5.065000	170.156
2.658577	-5.065000	141.725
4.658577	-5.065000	160.666
6.658577	-5.065000	129.257
8.658577	-5.065000	133.989
10.6586	-5.065000	158.718
12.6586	-5.065000	171.382
14.6586	-5.065000	146.145
16.6586	-5.065000	168.087
18.6586	-5.065000	96.3772
20.6586	-5.065000	102.146
22.6586	-5.065000	125.683
24.6586	-5.065000	105.67
-38.3414	-4.065000	178.277
-36.3414	-4.065000	111.476
-34.3414	-4.065000	132.402
-32.3414	-4.065000	155.819
-30.3414	-4.065000	192.025
-28.3414	-4.065000	172.188
-26.3414	-4.065000	157.58
-24.3414	-4.065000	168.787
-22.3414	-4.065000	180.549
-20.3414	-4.065000	166.827
-18.3414	-4.065000	152.482
-16.3414	-4.065000	181.985
-14.3414	-4.065000	170.562
-12.3414	-4.065000	165.212
-10.3414	-4.065000	137.914
-8.341423	-4.065000	134.578
-6.341423	-4.065000	145.415
-4.341423	-4.065000	92.7377
-2.341423	-4.065000	77.6698
-0.341423	-4.065000	183.641
1.658577	-4.065000	120.166
3.658577	-4.065000	228.867
5.658577	-4.065000	187.894
7.658577	-4.065000	186.195
9.658577	-4.065000	176.86
11.6586	-4.065000	125.022
13.6586	-4.065000	183.966
15.6586	-4.065000	194.249
17.6586	-4.065000	136.144
19.6586	-4.065000	121.195
21.6586	-4.065000	137.213
23.6586	-4.065000	138.342
-39.3414	-3.065000	1781.74
-37.3414	-3.065000	130.431
-35.3414	-3.065000	131.287
-33.3414	-3.065000	164.705
-31.3414	-3.065000	166.741
-29.3414	-3.065000	121.136
-27.3414	-3.065000	141.104
-25.3414	-3.065000	146.435
-23.3414	-3.065000	178.863
-21.3414	-3.065000	158.405
-19.3414	-3.065000	149.233
-17.3414	-3.065000	170.348
-15.3414	-3.065000	177.267
-13.3414	-3.065000	169.963
-11.3414	-3.065000	134.79
-9.341423	-3.065000	140.904
-7.341423	-3.065000	118.02
-5.341423	-3.065000	134.076
-3.341423	-3.065000	149.54
-1.341423	-3.065000	135.639
0.658577	-3.065000	167.524
2.658577	-3.065000	208.221
4.658577	-3.065000	98.1668
6.658577	-3.065000	148.211
8.658577	-3.065000	169.531
10.6586	-3.065000	168.905
12.6586	-3.065000	153.992
14.6586	-3.065000	194.176
16.6586	-3.065000	149.209
18.6586	-3.065000	140.365
20.6586	-3.065000	100.02
22.6586	-3.065000	82.6958
24.6586	-3.065000	142.119
-38.3414	-2.065000	188.965
-36.3414	-2.065000	133.735
-34.3414	-2.065000	183.009
-32.3414	-2.065000	121.297
-30.3414	-2.065000	157.246
-28.3414	-2.065000	1966.19
-26.3414	-2.065000	159.308
-24.3414	-2.065000	162.169
-22.3414	-2.065000	170.891
-20.3414	-2.065000	149.167
-18.3414	-2.065000	188.469
-16.3414	-2.065000	131.103
-14.3414	-2.065000	181.623
-12.3414	-2.065000	151.182
-10.3414	-2.065000	160.389
-8.341423	-2.065000	136.839
-6.341423	-2.065000	134.928
-4.341423	-2.065000	133.092
-2.341423	-2.065000	155.781
-0.341423	-2.065000	145.264
1.658577	-2.065000	188.643
3.658577	-2.065000	167.383
5.658577	-2.065000	161.977
7.658577	-2.065000	160.494
9.658577	-2.065000	182.272
11.6586	-2.065000	106.733
13.6586	-2.065000	137.915
15.6586	-2.065000	148.121
17.6586	-2.065000	112.735
19.6586	-2.065000	109.701
21.6586	-2.065000	98.6946
23.6586	-2.065000	89.1666
-39.3414	-1.065000	95.519
-37.3414	-1.065000	142.21
-35.3414	-1.065000	109.823
-33.3414	-1.065000	181.717
-31.3414	-1.065000	132.474
-29.3414	-1.065000	119.065
-27.3414	-1.065000	235.978
-25.3414	-1.065000	158.335
-23.3414	-1.065000	164.095
-21.3414	-1.065000	170.627
-19.3414	-1.065000	153.501
-17.3414	-1.065000	122.309
-15.3414	-1.065000	162.536
-13.3414	-1.065000	157.328
-11.3414	-1.065000	147.693
-9.341423	-1.065000	136.733
-7.341423	-1.065000	131.254
-5.341423	-1.065000	161.275
-3.341423	-1.065000	84.3433
-1.341423	-1.065000	147.144
0.658577	-1.065000	164.365
2.658577	-1.065000	169.225
4.658577	-1.065000	100.288
6.658577	-1.065000	165.689
8.658577	-1.065000	152.551
10.6586	-1.065000	119.541
12.6586	-1.065000	153.946
14.6586	-1.065000	181.678
16.6586	-1.065000	138.193
18.6586	-1.065000	171.962
20.6586	-1.065000	175.441
22.6586	-1.065000	105.31
24.6586	-1.065000	91.8042
-38.3414	-0.065000	66.9371
-36.3414	-0.065000	60.921
-34.3414	-0.065000	103.365
-32.3414	-0.065000	104.764
-30.3414	-0.065000	77.463
-28.3414	-0.065000	2442.59
-26.3414	-0.065000	197.797
-24.3414	-0.065000	150.863
-22.3414	-0.065000	175.445
-20.3414	-0.065000	174.647
-18.3414	-0.065000	162.003
-16.3414	-0.065000	128.356
-14.3414	-0.065000	156.033
-12.3414	-0.065000	162.334
-10.3414	-0.065000	153.447
-8.341423	-0.065000	139.865
-6.341423	-0.065000	133.94
-4.341423	-0.065000	154.769
-2.341423	-0.065000	163.146
-0.341423	-0.065000	150.325
1.658577	-0.065000	165.542
3.658577	-0.065000	94.6717
5.658577	-0.065000	145.184
7.658577	-0.065000	177.433
9.658577	-0.065000	172.519
11.6586	-0.065000	190.325
13.6586	-0.065000	132.313
15.6586	-0.065000	146.09
17.6586	-0.065000	142.446
19.6586	-0.065000	170.828
21.6586	-0.065000	147.558
23.6586	-0.065000	88.2493
-39.3414	0.935000	57.3662
-37.3414	0.935000	57.6263
-35.3414	0.935000	96.5877
-33.3414	0.935000	140.871
-31.3414	0.935000	145.7
-29.3414	0.935000	88.1755
-27.3414	0.935000	177.433
-25.3414	0.935000	145.349
-23.3414	0.935000	155.813
-21.3414	0.935000	188.425
-19.3414	0.935000	173.798
-17.3414	0.935000	124.83
-15.3414	0.935000	175.522
-13.3414	0.935000	161.016
-11.3414	0.935000	137.811
-9.341423	0.935000	152.246
-7.341423	0.935000	130.895
-5.341423	0.935000	134.777
-3.341423	0.935000	182.939
-1.341423	0.935000	172.663
0.658577	0.935000	173.675
2.658577	0.935000	102.009
4.658577	0.935000	135.386
6.658577	0.935000	129.448
8.658577	0.935000	159.671
10.6586	0.935000	168.91
12.6586	0.935000	172.898
14.6586	0.935000	163.402
16.6586	0.935000	165.855
18.6586	0.935000	184.73
20.6586	0.935000	163.584
22.6586	0.935000	170.351
24.6586	0.935000	98.5081
-38.3414	1.935000	66.0718
-36.3414	1.935000	149.085
-34.3414	1.935000	106.667
-32.3414	1.935000	173.53
-30.3414	1.935000	132.555
-28.3414	1.935000	154.188
-26.3414	1.935000	179.483
-24.3414	1.935000	106.708
-22.3414	1.935000	150.936
-20.3414	1.935000	192.088
-18.3414	1.935000	108.611
-16.3414	1.935000	157.493
-14.3414	1.935000	177.822
-12.3414	1.935000	152.924
-10.3414	1.935000	161.227
-8.341423	1.935000	151.238
-6.341423	1.935000	145.686
-4.341423	1.935000	148.811
-2.341423	1.935000	168.966
-0.341423	1.935000	181.481
1.658577	1.935000	115.949
3.658577	1.935000	108.216
5.658577	1.935000	165.45
7.658577	1.935000	181.622
9.658577	1.935000	138.098
11.6586	1.935000	154.356
13.6586	1.935000	142.056
15.6586	1.935000	148.037
17.6586	1.935000	186.537
19.6586	1.935000	180.911
21.6586	1.935000	148.945
23.6586	1.935000	168.237
-39.3414	2.935000	76.271
-37.3414	2.935000	177.761
-35.3414	2.935000	164.93
-33.3414	2.935000	131.784
-31.3414	2.935000	131.316
-29.3414	2.935000	174.064
-27.3414	2.935000	168.462
-25.3414	2.935000	171.498
-23.3414	2.935000	110.132
-21.3414	2.935000	167.686
-19.3414	2.935000	143.72
-17.3414	2.935000	113.776
-15.3414	2.935000	334.489
-13.3414	2.935000	202.864
-11.3414	2.935000	176.944
-9.341423	2.935000	168.147
-7.341423	2.935000	148.879
-5.341423	2.935000	139.198
-3.341423	2.935000	174.864
-1.341423	2.935000	182.459
0.658577	2.935000	166.451
2.658577	2.935000	137.181
4.658577	2.935000	132.516
6.658577	2.935000	165.101
8.658577	2.935000	176.988
10.6586	2.935000	133.876
12.6586	2.935000	134.6
14.6586	2.935000	178.455
16.6586	2.935000	122.546
18.6586	2.935000	194.915
20.6586	2.935000	170.877
22.6586	2.935000	157.654
24.6586	2.935000	143.074
-38.3414	3.935000	160.457
-36.3414	3.935000	121.142
-34.3414	3.935000	110.891
-32.3414	3.935000	147.828
-30.3414	3.935000	167.1
-28.3414	3.935000	172.179
-26.3414	3.935000	163.177
-24.3414	3.935000	135.234
-22.3414	3.935000	132.873
-20.3414	3.935000	179.131
-18.3414	3.935000	165.48
-16.3414	3.935000	77.1445
-14.3414	3.935000	41.8282
-12.3414	3.935000	147.726
-10.3414	3.935000	170.394
-8.341423	3.935000	116.016
-6.341423	3.935000	178.425
-4.341423	3.935000	176.43
-2.341423	3.935000	167.407
-0.341423	3.935000	149.407
1.658577	3.935000	187.285
3.658577	3.935000	148.145
5.658577	3.935000	156.847
7.658577	3.935000	164.995
9.658577	3.935000	162.392
11.6586	3.935000	140.953
13.6586	3.935000	146.944
15.6586	3.935000	135.008
17.6586	3.935000	141.544
19.6586	3.935000	145.16
21.6586	3.935000	169.077
23.6586	3.935000	137.826
-39.3414	4.935000	139.309
-37.3414	4.935000	145.12
-35.3414	4.935000	166.259
-33.3414	4.935000	148.822
-31.3414	4.935000	144.692
-29.3414	4.935000	172.899
-27.3414	4.935000	166.712
-25.3414	4.935000	169.389
-23.3414	4.935000	147.211
-21.3414	4.935000	130.338
-19.3414	4.935000	150.289
-17.3414	4.935000	153.746
-15.3414	4.935000	184.307
-13.3414	4.935000	257.446
-11.3414	4.935000	161.286
-9.341423	4.935000	161.04
-7.341423	4.935000	135.245
-5.341423	4.935000	134.653
-3.341423	4.935000	146.06
-1.341423	4.935000	139.247
0.658577	4.935000	139.975
2.658577	4.935000	185.966
4.658577	4.935000	154.284
6.658577	4.935000	126.257
8.658577	4.935000	181.122
10.6586	4.935000	156.268
12.6586	4.935000	126.607
14.6586	4.935000	170.35
16.6586	4.935000	171.471
18.6586	4.935000	136.735
20.6586	4.935000	141.919
22.6586	4.935000	146.318
24.6586	4.935000	148.455
-38.3414	5.935000	159.418
-36.3414	5.935000	161.856
-34.3414	5.935000	161.053
-32.3414	5.935000	159.135
-30.3414	5.935000	133.736
-28.3414	5.935000	158.606
-26.3414	5.935000	173.954
-24.3414	5.935000	164.287
-22.3414	5.935000	108.216
-20.3414	5.935000	150.357
-18.3414	5.935000	144.795
-16.3414	5.935000	154.122
-14.3414	5.935000	171.506
-12.3414	5.935000	139.342
-10.3414	5.935000	176.443
-8.341423	5.935000	156.207
-6.341423	5.935000	151.691
-4.341423	5.935000	175.365
-2.341423	5.935000	152.296
-0.341423	5.935000	144.149
1.658577	5.935000	147.071
3.658577	5.935000	176.353
5.658577	5.935000	146.321
7.658577	5.935000	136.736
9.658577	5.935000	165.553
11.6586	5.935000	146.913
13.6586	5.935000	130.991
15.6586	5.935000	147.131
17.6586	5.935000	162.65
19.6586	5.935000	170.101
21.6586	5.935000	190.977
23.6586	5.935000	166.045
-39.3414	6.935000	167.153
-37.3414	6.935000	170.255
-35.3414	6.935000	162.474
-33.3414	6.935000	160.334
-31.3414	6.935000	132.144
-29.3414	6.935000	156.733
-27.3414	6.935000	130.509
-25.3414	6.935000	174.761
-23.3414	6.935000	141.397
-21.3414	6.935000	118.684
-19.3414	6.935000	138.577
-17.3414	6.935000	138.81
-15.3414	6.935000	163.239
-13.3414	6.935000	147.701
-11.3414	6.935000	138.073
-9.341423	6.935000	159.183
-7.341423	6.935000	132.824
-5.341423	6.935000	157.439
-3.341423	6.935000	145.835
-1.341423	6.935000	135.921
0.658577	6.935000	143.636
2.658577	6.935000	169.721
4.658577	6.935000	169.384
6.658577	6.935000	161.38
8.658577	6.935000	124.801
10.6586	6.935000	138.575
12.6586	6.935000	160.623
14.6586	6.935000	194.555
16.6586	6.935000	210.926
18.6586	6.935000	166.39
20.6586	6.935000	174.701
22.6586	6.935000	166.316
24.6586	6.935000	162.893
-38.3414	7.935000	174.772
-36.3414	7.935000	169.777
-34.3414	7.935000	163.995
-32.3414	7.935000	155.546
-30.3414	7.935000	159.133
-28.3414	7.935000	127.341
-26.3414	7.935000	113.62
-24.3414	7.935000	128.773
-22.3414	7.935000	101.377
-20.3414	7.935000	143.775
-18.3414	7.935000	166.182
-16.3414	7.935000	173.78
-14.3414	7.935000	150.562
-12.3414	7.935000	160.114
-10.3414	7.935000	148.546
-8.341423	7.935000	116.83
-6.341423	7.935000	142.89
-4.341423	7.935000	159.256
-2.341423	7.935000	140.427
-0.341423	7.935000	168.884
1.658577	7.935000	186.396
3.658577	7.935000	154.024
5.658577	7.935000	96.7988
7.658577	7.935000	127.712
9.658577	7.935000	140.358
11.6586	7.935000	149.116
13.6586	7.935000	188.545
15.6586	7.935000	187.32
17.6586	7.935000	172.955
19.6586	7.935000	156.346
21.6586	7.935000	168.889
23.6586	7.935000	173.4
-39.3414	8.935000	141.501
-37.3414	8.935000	157.879
-35.3414	8.935000	158.36
-33.3414	8.935000	161.212
-31.3414	8.935000	155.183
-29.3414	8.935000	164.668
-27.3414	8.935000	158.244
-25.3414	8.935000	159.605
-23.3414	8.935000	111.248
-21.3414	8.935000	108.798
-19.3414	8.935000	153.653
-17.3414	8.935000	183.066
-15.3414	8.935000	142.614
-13.3414	8.935000	162.083
-11.3414	8.935000	127.923
-9.341423	8.935000	129.27
-7.341423	8.935000	131.042
-5.341423	8.935000	141.118
-3.341423	8.935000	147.122
-1.341423	8.935000	137.132
0.658577	8.935000	159.307
2.658577	8.935000	168.996
4.658577	8.935000	152.737
6.658577	8.935000	77.983
8.658577	8.935000	91.3454
10.6586	8.935000	138.797
12.6586	8.935000	160.489
14.6586	8.935000	193.29
16.6586	8.935000	246.863
18.6586	8.935000	195.087
20.6586	8.935000	197.337
22.6586	8.935000	190.571
24.6586	8.935000	165.12
-38.3414	9.935000	167.932
-36.3414	9.935000	164.977
-34.3414	9.935000	133.467
-32.3414	9.935000	127.901
-30.3414	9.935000	164.224
-28.3414	9.935000	174.464
-26.3414	9.935000	137.342
-24.3414	9.935000	157.448
-22.3414	9.935000	143.105
-20.3414	9.935000	142.182
-18.3414	9.935000	142.735
-16.3414	9.935000	150.755
-14.3414	9.935000	170.7
-12.3414	9.935000	149.88
-10.3414	9.935000	123.866
-8.341423	9.935000	145.727
-6.341423	9.935000	168.783
-4.341423	9.935000	152.965
-2.341423	9.935000	167.669
-0.341423	9.935000	180.803
1.658577	9.935000	177.104
3.658577	9.935000	104.02
5.658577	9.935000	93.5269
7.658577	9.935000	111.861
9.658577	9.935000	178.508
11.6586	9.935000	161.29
13.6586	9.935000	155.535
15.6586	9.935000	235.968
17.6586	9.935000	260.284
19.6586	9.935000	1881.09
21.6586	9.935000	164.059
23.6586	9.935000	59.7565
-39.3414	10.935	146.24
-37.3414	10.935	157.038
-35.3414	10.935	159.585
-33.3414	10.935	144.404
-31.3414	10.935	167.878
-29.3414	10.935	141.358
-27.3414	10.935	177.207
-25.3414	10.935	176.092
-23.3414	10.935	147.444
-21.3414	10.935	124.139
-19.3414	10.935	174.937
-17.3414	10.935	178.85
-15.3414	10.935	174.554
-13.3414	10.935	192.577
-11.3414	10.935	114.76
-9.341423	10.935	119.332
-7.341423	10.935	138.206
-5.341423	10.935	143.415
-3.341423	10.935	163.376
-1.341423	10.935	164.664
0.658577	10.935	188.761
2.658577	10.935	122.874
4.658577	10.935	81.9875
6.658577	10.935	94.2718
8.658577	10.935	143.719
10.6586	10.935	150.781
12.6586	10.935	154.797
14.6586	10.935	1869.48
16.6586	10.935	1881.22
18.6586	10.935	1823.43
20.6586	10.935	175.756
22.6586	10.935	177.593
24.6586	10.935	179.911
-38.3414	11.935	154.698
-36.3414	11.935	166.122
-34.3414	11.935	156.811
-32.3414	11.935	164.192
-30.3414	11.935	160.479
-28.3414	11.935	173.943
-26.3414	11.935	145.064
-24.3414	11.935	185.558
-22.3414	11.935	155.296
-20.3414	11.935	182.021
-18.3414	11.935	173.627
-16.3414	11.935	132.444
-14.3414	11.935	174.093
-12.3414	11.935	146.394
-10.3414	11.935	108.312
-8.341423	11.935	126.678
-6.341423	11.935	177.921
-4.341423	11.935	162.106
-2.341423	11.935	152.634
-0.341423	11.935	187.631
1.658577	11.935	137.67
3.658577	11.935	90.5126
5.658577	11.935	115.353
7.658577	11.935	132.81
9.658577	11.935	143.758
11.6586	11.935	143.14
13.6586	11.935	146.908
15.6586	11.935	0.639823
17.6586	11.935	1594.65
19.6586	11.935	8.026901
21.6586	11.935	150.602
23.6586	11.935	185.124
-39.3414	12.935	162.95
-37.3414	12.935	154.45
-35.3414	12.935	160.191
-33.3414	12.935	159.007
-31.3414	12.935	169.615
-29.3414	12.935	163.537
-27.3414	12.935	173.439
-25.3414	12.935	107.48
-23.3414	12.935	167.965
-21.3414	12.935	180.5
-19.3414	12.935	160.206
-17.3414	12.935	127.666
-15.3414	12.935	168.736
-13.3414	12.935	151.192
-11.3414	12.935	130.116
-9.341423	12.935	131.241
-7.341423	12.935	144.941
-5.341423	12.935	179.516
-3.341423	12.935	185.311
-1.341423	12.935	169.155
0.658577	12.935	147.418
2.658577	12.935	145.053
4.658577	12.935	74.1902
6.658577	12.935	184.646
8.658577	12.935	149.215
10.6586	12.935	165.296
12.6586	12.935	145.807
14.6586	12.935	1445.33
16.6586	12.935	1581.33
18.6586	12.935	2351.9
20.6586	12.935	33.0294
22.6586	12.935	177.255
24.6586	12.935	176.738
-38.3414	13.935	165.764
-36.3414	13.935	150.557
-34.3414	13.935	137.244
-32.3414	13.935	170.403
-30.3414	13.935	140.556
-28.3414	13.935	150.04
-26.3414	13.935	143.892
-24.3414	13.935	157.131
-22.3414	13.935	149.118
-20.3414	13.935	109.925
-18.3414	13.935	158.276
-16.3414	13.935	132.612
-14.3414	13.935	174.684
-12.3414	13.935	135.578
-10.3414	13.935	168.929
-8.341423	13.935	91.1451
-6.341423	13.935	162.273
-4.341423	13.935	180.397
-2.341423	13.935	117.625
-0.341423	13.935	151.148
1.658577	13.935	157.483
3.658577	13.935	176.303
5.658577	13.935	103.843
7.658577	13.935	157.577
9.658577	13.935	142.22
11.6586	13.935	134.793
13.6586	13.935	179.96
15.6586	13.935	0.639823
17.6586	13.935	1545.91
19.6586	13.935	2595.12
21.6586	13.935	2563.61
23.6586	13.935	1014.01
-39.3414	14.935	127.096
-37.3414	14.935	176.857
-35.3414	14.935	144.556
-33.3414	14.935	177.394
-31.3414	14.935	163.023
-29.3414	14.935	162.449
-27.3414	14.935	135.429
-25.3414	14.935	142.492
-23.3414	14.935	162.508
-21.3414	14.935	166.712
-19.3414	14.935	138.935
-17.3414	14.935	142.823
-15.3414	14.935	187.899
-13.3414	14.935	162.512
-11.3414	14.935	178.893
-9.341423	14.935	184.035
-7.341423	14.935	162.22
-5.341423	14.935	119.515
-3.341423	14.935	180.384
-1.341423	14.935	156.966
0.658577	14.935	125.778
2.658577	14.935	148.864
4.658577	14.935	688.106
6.658577	14.935	204.179
8.658577	14.935	149.015
10.6586	14.935	133.185
12.6586	14.935	180.767
14.6586	14.935	183.829
16.6586	14.935	34.725
18.6586	14.935	6.909832
20.6586	14.935	2595.12
22.6586	14.935	313.255
24.6586	14.935	357.786
-38.3414	15.935	172.581
-36.3414	15.935	172.899
-34.3414	15.935	165.092
-32.3414	15.935	176.435
-30.3414	15.935	130.44
-28.3414	15.935	141.864
-26.3414	15.935	145.706
-24.3414	15.935	143.866
-22.3414	15.935	74.8177
-20.3414	15.935	124.891
-18.3414	15.935	153.546
-16.3414	15.935	148.696
-14.3414	15.935	135.652
-12.3414	15.935	144.301
-10.3414	15.935	160.468
-8.341423	15.935	188.379
-6.341423	15.935	156.53
-4.341423	15.935	78.0568
-2.341423	15.935	187.214
-0.341423	15.935	121.432
1.658577	15.935	155.519
3.658577	15.935	157.823
5.658577	15.935	2322.5
7.658577	15.935	597.888
9.658577	15.935	156.234
11.6586	15.935	140.302
13.6586	15.935	191.713
15.6586	15.935	1.601338
17.6586	15.935	2.071796
19.6586	15.935	2595.12
21.6586	15.935	2105.58
23.6586	15.935	0.639823
24.6586	15.935	2126.43