File: data/derived_data/raman/20170920_Gr-NH2_for_Radisurf/20170920 Gr-NH for Radisurf map 2/2D int.txt
#XList		#YList		#IList
-39.3414	-21.065	99.4546
-37.3414	-21.065	71.8933
-35.3414	-21.065	85.8185
-33.3414	-21.065	268.371
-31.3414	-21.065	298.608
-29.3414	-21.065	204.412
-27.3414	-21.065	178.742
-25.3414	-21.065	61.9406
-23.3414	-21.065	11.6186
-21.3414	-21.065	71.2533
-19.3414	-21.065	4.188691
-17.3414	-21.065	53.0343
-15.3414	-21.065	337.502
-13.3414	-21.065	249.061
-11.3414	-21.065	39.9119
-9.341423	-21.065	12.5354
-7.341423	-21.065	193.845
-5.341423	-21.065	163.441
-3.341423	-21.065	17.8692
-1.341423	-21.065	178.665
0.658577	-21.065	185.041
2.658577	-21.065	121.871
4.658577	-21.065	124.627
6.658577	-21.065	11.6323
8.658577	-21.065	6.045783
10.6586	-21.065	97.738
12.6586	-21.065	139.923
14.6586	-21.065	159.918
16.6586	-21.065	112.569
18.6586	-21.065	205.957
20.6586	-21.065	90.7523
22.6586	-21.065	7.381675
24.6586	-21.065	0.000000
-38.3414	-20.065	107.036
-36.3414	-20.065	80.0403
-34.3414	-20.065	127.4
-32.3414	-20.065	237.433
-30.3414	-20.065	233.649
-28.3414	-20.065	170.326
-26.3414	-20.065	194.099
-24.3414	-20.065	138.037
-22.3414	-20.065	18.3213
-20.3414	-20.065	108.525
-18.3414	-20.065	96.5823
-16.3414	-20.065	345.082
-14.3414	-20.065	286.381
-12.3414	-20.065	270.205
-10.3414	-20.065	24.9604
-8.341423	-20.065	191.182
-6.341423	-20.065	217.863
-4.341423	-20.065	40.9636
-2.341423	-20.065	192.225
-0.341423	-20.065	188.436
1.658577	-20.065	156.156
3.658577	-20.065	124.106
5.658577	-20.065	82.712
7.658577	-20.065	0.000000
9.658577	-20.065	106.532
11.6586	-20.065	185.553
13.6586	-20.065	170.893
15.6586	-20.065	168.25
17.6586	-20.065	97.51
19.6586	-20.065	197.479
21.6586	-20.065	91.6095
23.6586	-20.065	1.347258
-39.3414	-19.065	129.044
-37.3414	-19.065	74.6667
-35.3414	-19.065	108.312
-33.3414	-19.065	140.407
-31.3414	-19.065	306.612
-29.3414	-19.065	199.23
-27.3414	-19.065	179.492
-25.3414	-19.065	184.421
-23.3414	-19.065	188.143
-21.3414	-19.065	213.954
-19.3414	-19.065	220.852
-17.3414	-19.065	287.86
-15.3414	-19.065	346.408
-13.3414	-19.065	278.022
-11.3414	-19.065	91.6889
-9.341423	-19.065	220.353
-7.341423	-19.065	213.823
-5.341423	-19.065	171.293
-3.341423	-19.065	215.757
-1.341423	-19.065	160.04
0.658577	-19.065	110.715
2.658577	-19.065	149.73
4.658577	-19.065	147.054
6.658577	-19.065	5.143229
8.658577	-19.065	73.2756
10.6586	-19.065	175.621
12.6586	-19.065	106.343
14.6586	-19.065	114.17
16.6586	-19.065	145.376
18.6586	-19.065	217.895
20.6586	-19.065	170.049
22.6586	-19.065	7.195356
24.6586	-19.065	2.858086
-38.3414	-18.065	103.488
-36.3414	-18.065	130.669
-34.3414	-18.065	5.481575
-32.3414	-18.065	222.451
-30.3414	-18.065	271.283
-28.3414	-18.065	187.826
-26.3414	-18.065	206.653
-24.3414	-18.065	202.274
-22.3414	-18.065	201.474
-20.3414	-18.065	223.053
-18.3414	-18.065	107.343
-16.3414	-18.065	285.641
-14.3414	-18.065	315.15
-12.3414	-18.065	286.077
-10.3414	-18.065	240.656
-8.341423	-18.065	199.074
-6.341423	-18.065	205.459
-4.341423	-18.065	122.469
-2.341423	-18.065	192.768
-0.341423	-18.065	137.281
1.658577	-18.065	104.98
3.658577	-18.065	152.127
5.658577	-18.065	45.0151
7.658577	-18.065	245.272
9.658577	-18.065	213.282
11.6586	-18.065	256.982
13.6586	-18.065	181.098
15.6586	-18.065	174.237
17.6586	-18.065	177.647
19.6586	-18.065	85.6675
21.6586	-18.065	52.6277
23.6586	-18.065	179.524
-39.3414	-17.065	200.753
-37.3414	-17.065	283.295
-35.3414	-17.065	7.763711
-33.3414	-17.065	9.151008
-31.3414	-17.065	159.885
-29.3414	-17.065	182.29
-27.3414	-17.065	177.575
-25.3414	-17.065	199.578
-23.3414	-17.065	214.922
-21.3414	-17.065	178.765
-19.3414	-17.065	69.4657
-17.3414	-17.065	127.132
-15.3414	-17.065	342.284
-13.3414	-17.065	324.064
-11.3414	-17.065	198.234
-9.341423	-17.065	202.511
-7.341423	-17.065	34.438
-5.341423	-17.065	189.508
-3.341423	-17.065	163.273
-1.341423	-17.065	181.791
0.658577	-17.065	116.475
2.658577	-17.065	91.6236
4.658577	-17.065	158.702
6.658577	-17.065	145.067
8.658577	-17.065	187.87
10.6586	-17.065	211.203
12.6586	-17.065	217.81
14.6586	-17.065	162.39
16.6586	-17.065	66.4446
18.6586	-17.065	176.338
20.6586	-17.065	15.9268
22.6586	-17.065	85.152
24.6586	-17.065	157.709
-38.3414	-16.065	163.662
-36.3414	-16.065	23.6451
-34.3414	-16.065	60.938
-32.3414	-16.065	267.139
-30.3414	-16.065	168.571
-28.3414	-16.065	183.368
-26.3414	-16.065	191.158
-24.3414	-16.065	203.405
-22.3414	-16.065	177.264
-20.3414	-16.065	16.3517
-18.3414	-16.065	8.254483
-16.3414	-16.065	242.57
-14.3414	-16.065	365.957
-12.3414	-16.065	275.849
-10.3414	-16.065	150.61
-8.341423	-16.065	78.8377
-6.341423	-16.065	212.672
-4.341423	-16.065	185.454
-2.341423	-16.065	77.1106
-0.341423	-16.065	202.008
1.658577	-16.065	77.1941
3.658577	-16.065	94.5875
5.658577	-16.065	168.78
7.658577	-16.065	170.991
9.658577	-16.065	201.905
11.6586	-16.065	281.271
13.6586	-16.065	27.1976
15.6586	-16.065	146.466
17.6586	-16.065	194.499
19.6586	-16.065	133.805
21.6586	-16.065	173.884
23.6586	-16.065	199.463
-39.3414	-15.065	72.396
-37.3414	-15.065	37.6523
-35.3414	-15.065	277.341
-33.3414	-15.065	284.703
-31.3414	-15.065	206.756
-29.3414	-15.065	190.297
-27.3414	-15.065	191.749
-25.3414	-15.065	199.7
-23.3414	-15.065	182.116
-21.3414	-15.065	123.471
-19.3414	-15.065	3.387457
-17.3414	-15.065	182.969
-15.3414	-15.065	296.9
-13.3414	-15.065	295.049
-11.3414	-15.065	81.2916
-9.341423	-15.065	160.967
-7.341423	-15.065	144.924
-5.341423	-15.065	162.454
-3.341423	-15.065	81.1346
-1.341423	-15.065	77.8299
0.658577	-15.065	213.505
2.658577	-15.065	88.8146
4.658577	-15.065	172.497
6.658577	-15.065	242.083
8.658577	-15.065	206.669
10.6586	-15.065	217.163
12.6586	-15.065	21.3921
14.6586	-15.065	76.1506
16.6586	-15.065	64.6165
18.6586	-15.065	199.086
20.6586	-15.065	35.7276
22.6586	-15.065	199.958
24.6586	-15.065	56.593
-38.3414	-14.065	58.8981
-36.3414	-14.065	328.565
-34.3414	-14.065	267.21
-32.3414	-14.065	278.199
-30.3414	-14.065	200.494
-28.3414	-14.065	181.947
-26.3414	-14.065	198.385
-24.3414	-14.065	173.65
-22.3414	-14.065	166.046
-20.3414	-14.065	74.7209
-18.3414	-14.065	81.597
-16.3414	-14.065	147.293
-14.3414	-14.065	236.938
-12.3414	-14.065	92.621
-10.3414	-14.065	151.678
-8.341423	-14.065	98.363
-6.341423	-14.065	135.831
-4.341423	-14.065	86.5549
-2.341423	-14.065	67.1697
-0.341423	-14.065	169.665
1.658577	-14.065	135.035
3.658577	-14.065	81.5761
5.658577	-14.065	174.863
7.658577	-14.065	246.249
9.658577	-14.065	233.766
11.6586	-14.065	9.503137
13.6586	-14.065	104.287
15.6586	-14.065	5.658256
17.6586	-14.065	10.7628
19.6586	-14.065	70.9205
21.6586	-14.065	174.487
23.6586	-14.065	145.037
-39.3414	-13.065	210.06
-37.3414	-13.065	322.744
-35.3414	-13.065	229.545
-33.3414	-13.065	272.665
-31.3414	-13.065	290.394
-29.3414	-13.065	223.414
-27.3414	-13.065	196.243
-25.3414	-13.065	189.182
-23.3414	-13.065	188.099
-21.3414	-13.065	110.861
-19.3414	-13.065	113.589
-17.3414	-13.065	59.9706
-15.3414	-13.065	91.3029
-13.3414	-13.065	6.969646
-11.3414	-13.065	135.44
-9.341423	-13.065	106.336
-7.341423	-13.065	109.27
-5.341423	-13.065	132.035
-3.341423	-13.065	104.948
-1.341423	-13.065	114.968
0.658577	-13.065	158.116
2.658577	-13.065	98.7526
4.658577	-13.065	116.378
6.658577	-13.065	130.419
8.658577	-13.065	219.166
10.6586	-13.065	9.417590
12.6586	-13.065	25.6656
14.6586	-13.065	122.98
16.6586	-13.065	48.0683
18.6586	-13.065	180.006
20.6586	-13.065	241.033
22.6586	-13.065	207.845
24.6586	-13.065	199.762
-38.3414	-12.065	270.897
-36.3414	-12.065	273.116
-34.3414	-12.065	275.795
-32.3414	-12.065	299.396
-30.3414	-12.065	275.082
-28.3414	-12.065	228.9
-26.3414	-12.065	202.01
-24.3414	-12.065	185.075
-22.3414	-12.065	185.959
-20.3414	-12.065	138.488
-18.3414	-12.065	86.4005
-16.3414	-12.065	56.0719
-14.3414	-12.065	16.2747
-12.3414	-12.065	171.645
-10.3414	-12.065	147.227
-8.341423	-12.065	94.9714
-6.341423	-12.065	159.427
-4.341423	-12.065	81.5701
-2.341423	-12.065	154.005
-0.341423	-12.065	148.279
1.658577	-12.065	79.6036
3.658577	-12.065	102.781
5.658577	-12.065	141.472
7.658577	-12.065	143.556
9.658577	-12.065	9.957928
11.6586	-12.065	5.363018
13.6586	-12.065	123.988
15.6586	-12.065	158.317
17.6586	-12.065	201.843
19.6586	-12.065	208.517
21.6586	-12.065	212.858
23.6586	-12.065	201.318
-39.3414	-11.065	281.129
-37.3414	-11.065	306.978
-35.3414	-11.065	266.207
-33.3414	-11.065	268.595
-31.3414	-11.065	264.718
-29.3414	-11.065	304.62
-27.3414	-11.065	227.05
-25.3414	-11.065	195.706
-23.3414	-11.065	183.915
-21.3414	-11.065	64.1894
-19.3414	-11.065	151.014
-17.3414	-11.065	94.928
-15.3414	-11.065	134.642
-13.3414	-11.065	34.5976
-11.3414	-11.065	161.036
-9.341423	-11.065	64.9063
-7.341423	-11.065	116.589
-5.341423	-11.065	81.6634
-3.341423	-11.065	95.1245
-1.341423	-11.065	122.655
0.658577	-11.065	90.1211
2.658577	-11.065	169.635
4.658577	-11.065	75.6865
6.658577	-11.065	181.982
8.658577	-11.065	192.01
10.6586	-11.065	2.754902
12.6586	-11.065	13.9094
14.6586	-11.065	150.194
16.6586	-11.065	93.3078
18.6586	-11.065	184.433
20.6586	-11.065	129.93
22.6586	-11.065	184.428
24.6586	-11.065	154.611
-38.3414	-10.065	293.813
-36.3414	-10.065	268.399
-34.3414	-10.065	269.849
-32.3414	-10.065	277.944
-30.3414	-10.065	244.625
-28.3414	-10.065	251.224
-26.3414	-10.065	313.286
-24.3414	-10.065	171.684
-22.3414	-10.065	15.5104
-20.3414	-10.065	97.5
-18.3414	-10.065	177.189
-16.3414	-10.065	153.487
-14.3414	-10.065	158.955
-12.3414	-10.065	210.654
-10.3414	-10.065	92.0498
-8.341423	-10.065	80.1247
-6.341423	-10.065	68.4203
-4.341423	-10.065	59.1352
-2.341423	-10.065	77.4128
-0.341423	-10.065	126.741
1.658577	-10.065	177.24
3.658577	-10.065	90.3352
5.658577	-10.065	116.539
7.658577	-10.065	149.354
9.658577	-10.065	2.932881
11.6586	-10.065	2.411495
13.6586	-10.065	188.01
15.6586	-10.065	164.226
17.6586	-10.065	190.675
19.6586	-10.065	178.965
21.6586	-10.065	184.398
23.6586	-10.065	185.416
-39.3414	-9.065000	235.412
-37.3414	-9.065000	254.981
-35.3414	-9.065000	315.889
-33.3414	-9.065000	260.875
-31.3414	-9.065000	303.926
-29.3414	-9.065000	296.399
-27.3414	-9.065000	318.835
-25.3414	-9.065000	129.651
-23.3414	-9.065000	9.863958
-21.3414	-9.065000	9.464372
-19.3414	-9.065000	123.374
-17.3414	-9.065000	106.311
-15.3414	-9.065000	259.48
-13.3414	-9.065000	148.21
-11.3414	-9.065000	308.431
-9.341423	-9.065000	82.9456
-7.341423	-9.065000	102.373
-5.341423	-9.065000	45.9213
-3.341423	-9.065000	64.8078
-1.341423	-9.065000	99.8407
0.658577	-9.065000	126.193
2.658577	-9.065000	99.62
4.658577	-9.065000	144.285
6.658577	-9.065000	164.837
8.658577	-9.065000	5.332705
10.6586	-9.065000	3.272761
12.6586	-9.065000	90.7289
14.6586	-9.065000	144.6
16.6586	-9.065000	193.016
18.6586	-9.065000	191.765
20.6586	-9.065000	183.876
22.6586	-9.065000	186.056
24.6586	-9.065000	31.8731
-38.3414	-8.065000	240.679
-36.3414	-8.065000	259.124
-34.3414	-8.065000	327.609
-32.3414	-8.065000	290.544
-30.3414	-8.065000	277.339
-28.3414	-8.065000	294.274
-26.3414	-8.065000	185.547
-24.3414	-8.065000	130.53
-22.3414	-8.065000	16.3347
-20.3414	-8.065000	148.505
-18.3414	-8.065000	126.14
-16.3414	-8.065000	240.539
-14.3414	-8.065000	152.795
-12.3414	-8.065000	185.77
-10.3414	-8.065000	160.964
-8.341423	-8.065000	141.834
-6.341423	-8.065000	92.7975
-4.341423	-8.065000	60.14
-2.341423	-8.065000	41.6252
-0.341423	-8.065000	50.9352
1.658577	-8.065000	19.6117
3.658577	-8.065000	82.1496
5.658577	-8.065000	187.47
7.658577	-8.065000	118.446
9.658577	-8.065000	5.741433
11.6586	-8.065000	3.770745
13.6586	-8.065000	184.363
15.6586	-8.065000	92.8447
17.6586	-8.065000	218.351
19.6586	-8.065000	191.911
21.6586	-8.065000	181.05
23.6586	-8.065000	176.543
-39.3414	-7.065000	270.716
-37.3414	-7.065000	277.062
-35.3414	-7.065000	305.208
-33.3414	-7.065000	346.96
-31.3414	-7.065000	280.904
-29.3414	-7.065000	290.559
-27.3414	-7.065000	84.2358
-25.3414	-7.065000	219.078
-23.3414	-7.065000	110.02
-21.3414	-7.065000	160.981
-19.3414	-7.065000	134.964
-17.3414	-7.065000	232.402
-15.3414	-7.065000	165.655
-13.3414	-7.065000	176.063
-11.3414	-7.065000	192.838
-9.341423	-7.065000	241.328
-7.341423	-7.065000	10.7914
-5.341423	-7.065000	14.2941
-3.341423	-7.065000	78.5872
-1.341423	-7.065000	8.243114
0.658577	-7.065000	2.986776
2.658577	-7.065000	106.936
4.658577	-7.065000	162.28
6.658577	-7.065000	59.1242
8.658577	-7.065000	6.039340
10.6586	-7.065000	49.9135
12.6586	-7.065000	15.9703
14.6586	-7.065000	239.23
16.6586	-7.065000	201.355
18.6586	-7.065000	194.368
20.6586	-7.065000	208.69
22.6586	-7.065000	186.343
24.6586	-7.065000	58.4744
-38.3414	-6.065000	246.079
-36.3414	-6.065000	282.471
-34.3414	-6.065000	303.211
-32.3414	-6.065000	324.092
-30.3414	-6.065000	286.768
-28.3414	-6.065000	258.438
-26.3414	-6.065000	235.56
-24.3414	-6.065000	234.144
-22.3414	-6.065000	222.896
-20.3414	-6.065000	71.2883
-18.3414	-6.065000	6.047112
-16.3414	-6.065000	223.451
-14.3414	-6.065000	234.321
-12.3414	-6.065000	189.454
-10.3414	-6.065000	223.339
-8.341423	-6.065000	284.261
-6.341423	-6.065000	108.887
-4.341423	-6.065000	1.547930
-2.341423	-6.065000	67.8051
-0.341423	-6.065000	9.101294
1.658577	-6.065000	3.001428
3.658577	-6.065000	200.219
5.658577	-6.065000	185.973
7.658577	-6.065000	114.297
9.658577	-6.065000	14.8133
11.6586	-6.065000	139.257
13.6586	-6.065000	216.604
15.6586	-6.065000	236.218
17.6586	-6.065000	196.315
19.6586	-6.065000	190.225
21.6586	-6.065000	197.264
23.6586	-6.065000	185.246
-39.3414	-5.065000	21.8474
-37.3414	-5.065000	243.764
-35.3414	-5.065000	241.557
-33.3414	-5.065000	291.595
-31.3414	-5.065000	271.407
-29.3414	-5.065000	250.629
-27.3414	-5.065000	215.79
-25.3414	-5.065000	229.587
-23.3414	-5.065000	178.092
-21.3414	-5.065000	165.881
-19.3414	-5.065000	4.386167
-17.3414	-5.065000	10.4698
-15.3414	-5.065000	211.82
-13.3414	-5.065000	284.529
-11.3414	-5.065000	242.092
-9.341423	-5.065000	312.102
-7.341423	-5.065000	250.919
-5.341423	-5.065000	120.469
-3.341423	-5.065000	0.346732
-1.341423	-5.065000	19.1767
0.658577	-5.065000	64.3305
2.658577	-5.065000	5.236938
4.658577	-5.065000	116.819
6.658577	-5.065000	145.204
8.658577	-5.065000	10.9434
10.6586	-5.065000	184.409
12.6586	-5.065000	251.901
14.6586	-5.065000	268.827
16.6586	-5.065000	176.203
18.6586	-5.065000	205.827
20.6586	-5.065000	205.699
22.6586	-5.065000	54.702
24.6586	-5.065000	88.9964
-38.3414	-4.065000	34.9914
-36.3414	-4.065000	220.114
-34.3414	-4.065000	268.491
-32.3414	-4.065000	126.024
-30.3414	-4.065000	101.202
-28.3414	-4.065000	103.878
-26.3414	-4.065000	255.361
-24.3414	-4.065000	206.488
-22.3414	-4.065000	150.847
-20.3414	-4.065000	128.231
-18.3414	-4.065000	28.2216
-16.3414	-4.065000	48.217
-14.3414	-4.065000	239.813
-12.3414	-4.065000	203.284
-10.3414	-4.065000	186.291
-8.341423	-4.065000	187.496
-6.341423	-4.065000	165.42
-4.341423	-4.065000	10.6874
-2.341423	-4.065000	8.565970
-0.341423	-4.065000	86.3207
1.658577	-4.065000	61.328
3.658577	-4.065000	7.516565
5.658577	-4.065000	90.5087
7.658577	-4.065000	134.896
9.658577	-4.065000	161.869
11.6586	-4.065000	153.29
13.6586	-4.065000	279.7
15.6586	-4.065000	48.0253
17.6586	-4.065000	210.403
19.6586	-4.065000	200.776
21.6586	-4.065000	172.904
23.6586	-4.065000	127.473
-39.3414	-3.065000	5.013310
-37.3414	-3.065000	107.619
-35.3414	-3.065000	236.179
-33.3414	-3.065000	143.554
-31.3414	-3.065000	37.816
-29.3414	-3.065000	15.546
-27.3414	-3.065000	58.3963
-25.3414	-3.065000	221.464
-23.3414	-3.065000	228.291
-21.3414	-3.065000	223.485
-19.3414	-3.065000	156.289
-17.3414	-3.065000	131.768
-15.3414	-3.065000	150.809
-13.3414	-3.065000	230.132
-11.3414	-3.065000	141.889
-9.341423	-3.065000	141.503
-7.341423	-3.065000	98.8165
-5.341423	-3.065000	159.952
-3.341423	-3.065000	34.6119
-1.341423	-3.065000	244.831
0.658577	-3.065000	231.738
2.658577	-3.065000	7.798780
4.658577	-3.065000	14.0273
6.658577	-3.065000	227.495
8.658577	-3.065000	156.831
10.6586	-3.065000	95.4026
12.6586	-3.065000	237.29
14.6586	-3.065000	222.083
16.6586	-3.065000	218.574
18.6586	-3.065000	216.058
20.6586	-3.065000	214.693
22.6586	-3.065000	25.1152
24.6586	-3.065000	128.122
-38.3414	-2.065000	52.76
-36.3414	-2.065000	27.3313
-34.3414	-2.065000	40.1076
-32.3414	-2.065000	10.4021
-30.3414	-2.065000	201.824
-28.3414	-2.065000	2.608170
-26.3414	-2.065000	218.893
-24.3414	-2.065000	307.825
-22.3414	-2.065000	192.757
-20.3414	-2.065000	64.3157
-18.3414	-2.065000	18.4723
-16.3414	-2.065000	138.359
-14.3414	-2.065000	270.899
-12.3414	-2.065000	165.532
-10.3414	-2.065000	236.843
-8.341423	-2.065000	140.143
-6.341423	-2.065000	138.67
-4.341423	-2.065000	131.392
-2.341423	-2.065000	262.194
-0.341423	-2.065000	262.06
1.658577	-2.065000	137.722
3.658577	-2.065000	58.9937
5.658577	-2.065000	152.369
7.658577	-2.065000	187.101
9.658577	-2.065000	89.188
11.6586	-2.065000	190.117
13.6586	-2.065000	267.286
15.6586	-2.065000	262.323
17.6586	-2.065000	226.555
19.6586	-2.065000	206.705
21.6586	-2.065000	9.523004
23.6586	-2.065000	126.805
-39.3414	-1.065000	14.7254
-37.3414	-1.065000	56.1191
-35.3414	-1.065000	54.8867
-33.3414	-1.065000	133.946
-31.3414	-1.065000	109.386
-29.3414	-1.065000	8.961528
-27.3414	-1.065000	4.491817
-25.3414	-1.065000	266.784
-23.3414	-1.065000	94.5544
-21.3414	-1.065000	69.3265
-19.3414	-1.065000	18.2548
-17.3414	-1.065000	146.047
-15.3414	-1.065000	188.477
-13.3414	-1.065000	202.856
-11.3414	-1.065000	201.629
-9.341423	-1.065000	138.011
-7.341423	-1.065000	139.049
-5.341423	-1.065000	250.829
-3.341423	-1.065000	190.968
-1.341423	-1.065000	235.541
0.658577	-1.065000	274.095
2.658577	-1.065000	144.012
4.658577	-1.065000	168.186
6.658577	-1.065000	61.8693
8.658577	-1.065000	44.4692
10.6586	-1.065000	164.513
12.6586	-1.065000	277.015
14.6586	-1.065000	234.695
16.6586	-1.065000	214.3
18.6586	-1.065000	40.5354
20.6586	-1.065000	97.6633
22.6586	-1.065000	69.6934
24.6586	-1.065000	128.798
-38.3414	-0.065000	52.4556
-36.3414	-0.065000	52.2954
-34.3414	-0.065000	79.4455
-32.3414	-0.065000	67.5682
-30.3414	-0.065000	61.8751
-28.3414	-0.065000	2.692089
-26.3414	-0.065000	32.6102
-24.3414	-0.065000	311.753
-22.3414	-0.065000	32.6232
-20.3414	-0.065000	29.6838
-18.3414	-0.065000	149.034
-16.3414	-0.065000	173.478
-14.3414	-0.065000	256.06
-12.3414	-0.065000	238.343
-10.3414	-0.065000	183.25
-8.341423	-0.065000	179.584
-6.341423	-0.065000	192.989
-4.341423	-0.065000	237.613
-2.341423	-0.065000	268.702
-0.341423	-0.065000	250.471
1.658577	-0.065000	230.712
3.658577	-0.065000	198.701
5.658577	-0.065000	223.237
7.658577	-0.065000	150.759
9.658577	-0.065000	191.516
11.6586	-0.065000	320.824
13.6586	-0.065000	227.888
15.6586	-0.065000	213.791
17.6586	-0.065000	191.352
19.6586	-0.065000	27.5109
21.6586	-0.065000	226.186
23.6586	-0.065000	129.219
-39.3414	0.935000	51.4633
-37.3414	0.935000	53.0101
-35.3414	0.935000	75.2802
-33.3414	0.935000	107.8
-31.3414	0.935000	112.748
-29.3414	0.935000	12.7907
-27.3414	0.935000	2.835917
-25.3414	0.935000	225.961
-23.3414	0.935000	286.736
-21.3414	0.935000	145.225
-19.3414	0.935000	172.695
-17.3414	0.935000	161.23
-15.3414	0.935000	58.3562
-13.3414	0.935000	259.938
-11.3414	0.935000	193.107
-9.341423	0.935000	184.481
-7.341423	0.935000	158.891
-5.341423	0.935000	249.154
-3.341423	0.935000	109.749
-1.341423	0.935000	314.901
0.658577	0.935000	239.649
2.658577	0.935000	163.418
4.658577	0.935000	170.174
6.658577	0.935000	269.151
8.658577	0.935000	242.231
10.6586	0.935000	285.325
12.6586	0.935000	291.621
14.6586	0.935000	154.172
16.6586	0.935000	151.997
18.6586	0.935000	93.0484
20.6586	0.935000	224.639
22.6586	0.935000	272.271
24.6586	0.935000	136.757
-38.3414	1.935000	50.6263
-36.3414	1.935000	100.112
-34.3414	1.935000	92.5144
-32.3414	1.935000	208.851
-30.3414	1.935000	134.865
-28.3414	1.935000	6.095236
-26.3414	1.935000	136.661
-24.3414	1.935000	126.466
-22.3414	1.935000	292.385
-20.3414	1.935000	232.534
-18.3414	1.935000	12.2899
-16.3414	1.935000	3.563224
-14.3414	1.935000	313.523
-12.3414	1.935000	265.848
-10.3414	1.935000	274.24
-8.341423	1.935000	182.623
-6.341423	1.935000	197.64
-4.341423	1.935000	220.603
-2.341423	1.935000	289.315
-0.341423	1.935000	265.681
1.658577	1.935000	71.9411
3.658577	1.935000	133.533
5.658577	1.935000	230.345
7.658577	1.935000	186.707
9.658577	1.935000	259.38
11.6586	1.935000	313.273
13.6586	1.935000	224.04
15.6586	1.935000	180.07
17.6586	1.935000	179.759
19.6586	1.935000	84.7004
21.6586	1.935000	228.49
23.6586	1.935000	199.501
-39.3414	2.935000	64.4504
-37.3414	2.935000	127.445
-35.3414	2.935000	86.2031
-33.3414	2.935000	88.8128
-31.3414	2.935000	184.153
-29.3414	2.935000	156.7
-27.3414	2.935000	153.3
-25.3414	2.935000	270.578
-23.3414	2.935000	147.431
-21.3414	2.935000	292.536
-19.3414	2.935000	29.8048
-17.3414	2.935000	9.200622
-15.3414	2.935000	4.416778
-13.3414	2.935000	90.4156
-11.3414	2.935000	234.242
-9.341423	2.935000	200.709
-7.341423	2.935000	178.984
-5.341423	2.935000	276.671
-3.341423	2.935000	250.014
-1.341423	2.935000	218.337
0.658577	2.935000	260.678
2.658577	2.935000	197.206
4.658577	2.935000	155.487
6.658577	2.935000	14.6543
8.658577	2.935000	239.751
10.6586	2.935000	278.494
12.6586	2.935000	274.447
14.6586	2.935000	317.072
16.6586	2.935000	183.969
18.6586	2.935000	57.2414
20.6586	2.935000	57.0488
22.6586	2.935000	233.857
24.6586	2.935000	100.026
-38.3414	3.935000	157.338
-36.3414	3.935000	235.26
-34.3414	3.935000	61.3118
-32.3414	3.935000	117.421
-30.3414	3.935000	196.316
-28.3414	3.935000	260.358
-26.3414	3.935000	240.293
-24.3414	3.935000	199.556
-22.3414	3.935000	175.244
-20.3414	3.935000	231.553
-18.3414	3.935000	183.803
-16.3414	3.935000	21.0033
-14.3414	3.935000	8.927914
-12.3414	3.935000	195.801
-10.3414	3.935000	291.839
-8.341423	3.935000	180.607
-6.341423	3.935000	87.6236
-4.341423	3.935000	35.485
-2.341423	3.935000	307.121
-0.341423	3.935000	278.409
1.658577	3.935000	228.972
3.658577	3.935000	137.021
5.658577	3.935000	251.931
7.658577	3.935000	128.918
9.658577	3.935000	287.756
11.6586	3.935000	245.592
13.6586	3.935000	285.405
15.6586	3.935000	244.074
17.6586	3.935000	236.722
19.6586	3.935000	241.657
21.6586	3.935000	207.428
23.6586	3.935000	142.176
-39.3414	4.935000	245.343
-37.3414	4.935000	253.858
-35.3414	4.935000	333.017
-33.3414	4.935000	78.732
-31.3414	4.935000	188.911
-29.3414	4.935000	156.433
-27.3414	4.935000	124.811
-25.3414	4.935000	278.674
-23.3414	4.935000	202.628
-21.3414	4.935000	193.388
-19.3414	4.935000	273.98
-17.3414	4.935000	305.519
-15.3414	4.935000	132.644
-13.3414	4.935000	7.085859
-11.3414	4.935000	184.143
-9.341423	4.935000	271.565
-7.341423	4.935000	175.819
-5.341423	4.935000	8.849161
-3.341423	4.935000	191.307
-1.341423	4.935000	275.219
0.658577	4.935000	276.664
2.658577	4.935000	114.076
4.658577	4.935000	87.7448
6.658577	4.935000	233.679
8.658577	4.935000	306.231
10.6586	4.935000	260.493
12.6586	4.935000	287.256
14.6586	4.935000	312.494
16.6586	4.935000	233.291
18.6586	4.935000	275.498
20.6586	4.935000	219.918
22.6586	4.935000	206.221
24.6586	4.935000	74.9648
-38.3414	5.935000	319.435
-36.3414	5.935000	304.688
-34.3414	5.935000	260.412
-32.3414	5.935000	211.23
-30.3414	5.935000	21.4967
-28.3414	5.935000	3.940612
-26.3414	5.935000	168.32
-24.3414	5.935000	272.479
-22.3414	5.935000	122.622
-20.3414	5.935000	101.604
-18.3414	5.935000	271.391
-16.3414	5.935000	294.216
-14.3414	5.935000	206.639
-12.3414	5.935000	55.572
-10.3414	5.935000	230.883
-8.341423	5.935000	210.399
-6.341423	5.935000	209.488
-4.341423	5.935000	16.8182
-2.341423	5.935000	267.097
-0.341423	5.935000	272.464
1.658577	5.935000	234.898
3.658577	5.935000	106.57
5.658577	5.935000	104.373
7.658577	5.935000	217.88
9.658577	5.935000	260.653
11.6586	5.935000	314.739
13.6586	5.935000	279.437
15.6586	5.935000	220.53
17.6586	5.935000	82.4926
19.6586	5.935000	203.558
21.6586	5.935000	286.897
23.6586	5.935000	172.595
-39.3414	6.935000	347.696
-37.3414	6.935000	344.017
-35.3414	6.935000	283.292
-33.3414	6.935000	239.987
-31.3414	6.935000	131.941
-29.3414	6.935000	168.459
-27.3414	6.935000	61.5284
-25.3414	6.935000	144.648
-23.3414	6.935000	126.86
-21.3414	6.935000	150.292
-19.3414	6.935000	282.59
-17.3414	6.935000	281.391
-15.3414	6.935000	312.866
-13.3414	6.935000	236.321
-11.3414	6.935000	72.5931
-9.341423	6.935000	135.026
-7.341423	6.935000	192.442
-5.341423	6.935000	62.0472
-3.341423	6.935000	191.32
-1.341423	6.935000	256.531
0.658577	6.935000	266.778
2.658577	6.935000	137.252
4.658577	6.935000	47.381
6.658577	6.935000	211.642
8.658577	6.935000	218.92
10.6586	6.935000	246.762
12.6586	6.935000	286.294
14.6586	6.935000	34.7523
16.6586	6.935000	80.5781
18.6586	6.935000	276.213
20.6586	6.935000	269.44
22.6586	6.935000	85.9187
24.6586	6.935000	178.002
-38.3414	7.935000	318.804
-36.3414	7.935000	332.875
-34.3414	7.935000	282.228
-32.3414	7.935000	265.387
-30.3414	7.935000	280.292
-28.3414	7.935000	93.1326
-26.3414	7.935000	194.215
-24.3414	7.935000	173.255
-22.3414	7.935000	154.454
-20.3414	7.935000	181.384
-18.3414	7.935000	237.02
-16.3414	7.935000	213.71
-14.3414	7.935000	233.793
-12.3414	7.935000	287.083
-10.3414	7.935000	101.511
-8.341423	7.935000	122.087
-6.341423	7.935000	156.993
-4.341423	7.935000	97.5822
-2.341423	7.935000	215.687
-0.341423	7.935000	309.115
1.658577	7.935000	194.719
3.658577	7.935000	140.801
5.658577	7.935000	149.497
7.658577	7.935000	157
9.658577	7.935000	240.27
11.6586	7.935000	258.092
13.6586	7.935000	168.801
15.6586	7.935000	114.65
17.6586	7.935000	147.696
19.6586	7.935000	9.798481
21.6586	7.935000	185.43
23.6586	7.935000	181.37
-39.3414	8.935000	267.023
-37.3414	8.935000	253.812
-35.3414	8.935000	307.1
-33.3414	8.935000	303.249
-31.3414	8.935000	288.57
-29.3414	8.935000	204.102
-27.3414	8.935000	182.745
-25.3414	8.935000	179.461
-23.3414	8.935000	154.175
-21.3414	8.935000	160.286
-19.3414	8.935000	188.089
-17.3414	8.935000	252.994
-15.3414	8.935000	303.175
-13.3414	8.935000	268.544
-11.3414	8.935000	125.081
-9.341423	8.935000	100.909
-7.341423	8.935000	127.514
-5.341423	8.935000	181.913
-3.341423	8.935000	181.731
-1.341423	8.935000	271.201
0.658577	8.935000	214.26
2.658577	8.935000	120.362
4.658577	8.935000	225.593
6.658577	8.935000	185.671
8.658577	8.935000	148.275
10.6586	8.935000	177.397
12.6586	8.935000	226.793
14.6586	8.935000	94.8121
16.6586	8.935000	21.8987
18.6586	8.935000	7.242920
20.6586	8.935000	3.346197
22.6586	8.935000	10.7944
24.6586	8.935000	93.9327
-38.3414	9.935000	233.952
-36.3414	9.935000	242.909
-34.3414	9.935000	248.224
-32.3414	9.935000	261.386
-30.3414	9.935000	275.727
-28.3414	9.935000	206.401
-26.3414	9.935000	152.527
-24.3414	9.935000	39.2866
-22.3414	9.935000	182.746
-20.3414	9.935000	179.282
-18.3414	9.935000	217.798
-16.3414	9.935000	223.381
-14.3414	9.935000	290.856
-12.3414	9.935000	190.557
-10.3414	9.935000	111.675
-8.341423	9.935000	111.381
-6.341423	9.935000	287.341
-4.341423	9.935000	245.934
-2.341423	9.935000	181.698
-0.341423	9.935000	295.016
1.658577	9.935000	103.671
3.658577	9.935000	204.435
5.658577	9.935000	108.371
7.658577	9.935000	158.423
9.658577	9.935000	176.225
11.6586	9.935000	170.868
13.6586	9.935000	9.391750
15.6586	9.935000	1.728916
17.6586	9.935000	3.650653
19.6586	9.935000	2.955910
21.6586	9.935000	93.8381
23.6586	9.935000	8.191934
-39.3414	10.935	207.017
-37.3414	10.935	238.131
-35.3414	10.935	266.3
-33.3414	10.935	215.035
-31.3414	10.935	324.368
-29.3414	10.935	260.74
-27.3414	10.935	109.875
-25.3414	10.935	26.4319
-23.3414	10.935	30.2049
-21.3414	10.935	85.8792
-19.3414	10.935	205.849
-17.3414	10.935	162.231
-15.3414	10.935	255.439
-13.3414	10.935	189.469
-11.3414	10.935	112.81
-9.341423	10.935	121.547
-7.341423	10.935	139.106
-5.341423	10.935	273.986
-3.341423	10.935	73.3104
-1.341423	10.935	270.209
0.658577	10.935	239.402
2.658577	10.935	220.244
4.658577	10.935	148.179
6.658577	10.935	152.915
8.658577	10.935	38.724
10.6586	10.935	41.7517
12.6586	10.935	131.047
14.6586	10.935	0.185004
16.6586	10.935	2.356706
18.6586	10.935	0.833367
20.6586	10.935	86.3371
22.6586	10.935	93.5715
24.6586	10.935	39.8034
-38.3414	11.935	244.968
-36.3414	11.935	278.357
-34.3414	11.935	223.695
-32.3414	11.935	228.823
-30.3414	11.935	346.804
-28.3414	11.935	264.79
-26.3414	11.935	134.225
-24.3414	11.935	6.900530
-22.3414	11.935	163.741
-20.3414	11.935	101.943
-18.3414	11.935	127.074
-16.3414	11.935	175.612
-14.3414	11.935	288.303
-12.3414	11.935	123.25
-10.3414	11.935	82.5507
-8.341423	11.935	118.185
-6.341423	11.935	105.771
-4.341423	11.935	236.149
-2.341423	11.935	60.5648
-0.341423	11.935	255.642
1.658577	11.935	176.308
3.658577	11.935	86.7343
5.658577	11.935	146.946
7.658577	11.935	226.116
9.658577	11.935	158.596
11.6586	11.935	229.535
13.6586	11.935	63.0036
15.6586	11.935	0.000000
17.6586	11.935	10.2034
19.6586	11.935	0.000000
21.6586	11.935	66.2813
23.6586	11.935	118.328
-39.3414	12.935	265.305
-37.3414	12.935	271.651
-35.3414	12.935	277.721
-33.3414	12.935	267.625
-31.3414	12.935	293.286
-29.3414	12.935	312.838
-27.3414	12.935	64.6152
-25.3414	12.935	5.072305
-23.3414	12.935	195.862
-21.3414	12.935	159.141
-19.3414	12.935	252.97
-17.3414	12.935	146.827
-15.3414	12.935	270.323
-13.3414	12.935	205.216
-11.3414	12.935	110.859
-9.341423	12.935	104.403
-7.341423	12.935	151.928
-5.341423	12.935	110.234
-3.341423	12.935	196.346
-1.341423	12.935	207.605
0.658577	12.935	200.832
2.658577	12.935	179.484
4.658577	12.935	107.559
6.658577	12.935	267.258
8.658577	12.935	196.114
10.6586	12.935	211.777
12.6586	12.935	196.344
14.6586	12.935	3.524073
16.6586	12.935	0.000000
18.6586	12.935	5.456939
20.6586	12.935	2.341710
22.6586	12.935	39.774
24.6586	12.935	25.645
-38.3414	13.935	299.419
-36.3414	13.935	289.353
-34.3414	13.935	258.206
-32.3414	13.935	226.448
-30.3414	13.935	262.187
-28.3414	13.935	159.879
-26.3414	13.935	126.862
-24.3414	13.935	81.0873
-22.3414	13.935	225.731
-20.3414	13.935	186.658
-18.3414	13.935	223.681
-16.3414	13.935	171.888
-14.3414	13.935	298.717
-12.3414	13.935	140.726
-10.3414	13.935	30.1271
-8.341423	13.935	190.599
-6.341423	13.935	97.7019
-4.341423	13.935	148.508
-2.341423	13.935	106.339
-0.341423	13.935	126.602
1.658577	13.935	124.279
3.658577	13.935	35.4378
5.658577	13.935	9.214394
7.658577	13.935	221.483
9.658577	13.935	211.538
11.6586	13.935	200.748
13.6586	13.935	9.867708
15.6586	13.935	0.000000
17.6586	13.935	5.681217
19.6586	13.935	1.252773
21.6586	13.935	1.803718
23.6586	13.935	5.885490
-39.3414	14.935	273.084
-37.3414	14.935	297.482
-35.3414	14.935	273.42
-33.3414	14.935	245.672
-31.3414	14.935	249.256
-29.3414	14.935	146.652
-27.3414	14.935	148.278
-25.3414	14.935	129.161
-23.3414	14.935	36.6217
-21.3414	14.935	242.692
-19.3414	14.935	215.185
-17.3414	14.935	140.042
-15.3414	14.935	150.641
-13.3414	14.935	168.231
-11.3414	14.935	53.4905
-9.341423	14.935	9.444858
-7.341423	14.935	222.959
-5.341423	14.935	195.756
-3.341423	14.935	83.1344
-1.341423	14.935	152.865
0.658577	14.935	157.101
2.658577	14.935	198.532
4.658577	14.935	3.914969
6.658577	14.935	4.792041
8.658577	14.935	178.498
10.6586	14.935	244.343
12.6586	14.935	109.622
14.6586	14.935	0.000000
16.6586	14.935	2.393199
18.6586	14.935	6.612789
20.6586	14.935	0.421634
22.6586	14.935	0.000000
24.6586	14.935	0.000000
-38.3414	15.935	313.568
-36.3414	15.935	269.499
-34.3414	15.935	245.943
-32.3414	15.935	263.302
-30.3414	15.935	192.868
-28.3414	15.935	139.617
-26.3414	15.935	155.514
-24.3414	15.935	93.3916
-22.3414	15.935	8.231315
-20.3414	15.935	141.893
-18.3414	15.935	146.094
-16.3414	15.935	303.598
-14.3414	15.935	254.663
-12.3414	15.935	266.701
-10.3414	15.935	7.549764
-8.341423	15.935	10.0063
-6.341423	15.935	99.7532
-4.341423	15.935	123.971
-2.341423	15.935	86.2963
-0.341423	15.935	211.408
1.658577	15.935	239.55
3.658577	15.935	62.5949
5.658577	15.935	1.971134
7.658577	15.935	3.457176
9.658577	15.935	200.683
11.6586	15.935	29.3458
13.6586	15.935	20.8494
15.6586	15.935	6.957359
17.6586	15.935	17.8322
19.6586	15.935	2.940790
21.6586	15.935	2.141288
23.6586	15.935	3.177167
24.6586	15.935	2.352299