File: data/derived_data/raman/20170920_Gr-NH2_for_Radisurf/20170920 Gr-NH for Radisurf map 2/2D pos.txt
#XList		#YList		#IList
-39.3414	-21.065	2713.71
-37.3414	-21.065	2711.64
-35.3414	-21.065	2713.39
-33.3414	-21.065	2701.67
-31.3414	-21.065	2702.97
-29.3414	-21.065	2702.35
-27.3414	-21.065	2700.16
-25.3414	-21.065	2701.48
-23.3414	-21.065	2686.49
-21.3414	-21.065	2707.62
-19.3414	-21.065	2728.14
-17.3414	-21.065	2694.72
-15.3414	-21.065	2699.79
-13.3414	-21.065	2701.8
-11.3414	-21.065	2714.64
-9.341423	-21.065	2716.12
-7.341423	-21.065	2707.88
-5.341423	-21.065	2697.64
-3.341423	-21.065	2719.75
-1.341423	-21.065	2711.7
0.658577	-21.065	2706.96
2.658577	-21.065	2702.56
4.658577	-21.065	2710.86
6.658577	-21.065	2708.96
8.658577	-21.065	2710.5
10.6586	-21.065	2705.69
12.6586	-21.065	2702.5
14.6586	-21.065	2699.59
16.6586	-21.065	2713.23
18.6586	-21.065	2701.35
20.6586	-21.065	2706.85
22.6586	-21.065	2678.87
24.6586	-21.065	2750
-38.3414	-20.065	2713.31
-36.3414	-20.065	2710.09
-34.3414	-20.065	2707.5
-32.3414	-20.065	2698.93
-30.3414	-20.065	2697.67
-28.3414	-20.065	2703.67
-26.3414	-20.065	2701.74
-24.3414	-20.065	2700.74
-22.3414	-20.065	2703.49
-20.3414	-20.065	2697.43
-18.3414	-20.065	2709.02
-16.3414	-20.065	2699.96
-14.3414	-20.065	2700.12
-12.3414	-20.065	2699.34
-10.3414	-20.065	2700.76
-8.341423	-20.065	2709.68
-6.341423	-20.065	2704.84
-4.341423	-20.065	2703.54
-2.341423	-20.065	2703.19
-0.341423	-20.065	2707.76
1.658577	-20.065	2711.37
3.658577	-20.065	2714.48
5.658577	-20.065	2715.59
7.658577	-20.065	2650
9.658577	-20.065	2704.16
11.6586	-20.065	2711.31
13.6586	-20.065	2699.2
15.6586	-20.065	2710.82
17.6586	-20.065	2704.08
19.6586	-20.065	2702.89
21.6586	-20.065	2699.42
23.6586	-20.065	2650
-39.3414	-19.065	2709.1
-37.3414	-19.065	2711.86
-35.3414	-19.065	2708.26
-33.3414	-19.065	2705.65
-31.3414	-19.065	2703.42
-29.3414	-19.065	2702.04
-27.3414	-19.065	2702.41
-25.3414	-19.065	2701.65
-23.3414	-19.065	2699.35
-21.3414	-19.065	2704.82
-19.3414	-19.065	2700.54
-17.3414	-19.065	2698.63
-15.3414	-19.065	2700.24
-13.3414	-19.065	2697.39
-11.3414	-19.065	2705.07
-9.341423	-19.065	2707.62
-7.341423	-19.065	2703.2
-5.341423	-19.065	2704.14
-3.341423	-19.065	2694.48
-1.341423	-19.065	2709.54
0.658577	-19.065	2710.83
2.658577	-19.065	2711.02
4.658577	-19.065	2711.53
6.658577	-19.065	2690.04
8.658577	-19.065	2704.39
10.6586	-19.065	2710.58
12.6586	-19.065	2697
14.6586	-19.065	2703.38
16.6586	-19.065	2703.26
18.6586	-19.065	2703.28
20.6586	-19.065	2699.69
22.6586	-19.065	2750
24.6586	-19.065	2714.34
-38.3414	-18.065	2709.36
-36.3414	-18.065	2709.55
-34.3414	-18.065	2687.56
-32.3414	-18.065	2703.66
-30.3414	-18.065	2702.38
-28.3414	-18.065	2701.15
-26.3414	-18.065	2702.35
-24.3414	-18.065	2701.95
-22.3414	-18.065	2702.01
-20.3414	-18.065	2702.97
-18.3414	-18.065	2694.89
-16.3414	-18.065	2703.33
-14.3414	-18.065	2700.78
-12.3414	-18.065	2705.3
-10.3414	-18.065	2703.31
-8.341423	-18.065	2705.89
-6.341423	-18.065	2704.59
-4.341423	-18.065	2697.56
-2.341423	-18.065	2706.82
-0.341423	-18.065	2706.37
1.658577	-18.065	2712.31
3.658577	-18.065	2710.5
5.658577	-18.065	2705.81
7.658577	-18.065	2700.85
9.658577	-18.065	2706.18
11.6586	-18.065	2705.54
13.6586	-18.065	2703.82
15.6586	-18.065	2706.63
17.6586	-18.065	2706.41
19.6586	-18.065	2706.66
21.6586	-18.065	2702.67
23.6586	-18.065	2701.73
-39.3414	-17.065	2709.76
-37.3414	-17.065	2699.57
-35.3414	-17.065	2698.43
-33.3414	-17.065	2706.34
-31.3414	-17.065	2700.86
-29.3414	-17.065	2703.14
-27.3414	-17.065	2701.66
-25.3414	-17.065	2702.27
-23.3414	-17.065	2701.93
-21.3414	-17.065	2700.13
-19.3414	-17.065	2696.17
-17.3414	-17.065	2703.01
-15.3414	-17.065	2698.4
-13.3414	-17.065	2701.76
-11.3414	-17.065	2700.57
-9.341423	-17.065	2706.69
-7.341423	-17.065	2712.91
-5.341423	-17.065	2699.5
-3.341423	-17.065	2706.42
-1.341423	-17.065	2703.56
0.658577	-17.065	2708.86
2.658577	-17.065	2711.41
4.658577	-17.065	2704.05
6.658577	-17.065	2701.65
8.658577	-17.065	2703.32
10.6586	-17.065	2705.6
12.6586	-17.065	2703.14
14.6586	-17.065	2705.99
16.6586	-17.065	2702.64
18.6586	-17.065	2715.16
20.6586	-17.065	2711.58
22.6586	-17.065	2701.48
24.6586	-17.065	2699.89
-38.3414	-16.065	2702.52
-36.3414	-16.065	2681.28
-34.3414	-16.065	2708.9
-32.3414	-16.065	2699.02
-30.3414	-16.065	2698.47
-28.3414	-16.065	2706.1
-26.3414	-16.065	2703.33
-24.3414	-16.065	2703.37
-22.3414	-16.065	2702.58
-20.3414	-16.065	2709.49
-18.3414	-16.065	2679.56
-16.3414	-16.065	2699.5
-14.3414	-16.065	2702.98
-12.3414	-16.065	2705.4
-10.3414	-16.065	2702.8
-8.341423	-16.065	2701.16
-6.341423	-16.065	2706.47
-4.341423	-16.065	2706.13
-2.341423	-16.065	2712.75
-0.341423	-16.065	2707.93
1.658577	-16.065	2708.36
3.658577	-16.065	2714.56
5.658577	-16.065	2708.25
7.658577	-16.065	2703.95
9.658577	-16.065	2704.35
11.6586	-16.065	2702.03
13.6586	-16.065	2704.99
15.6586	-16.065	2699.98
17.6586	-16.065	2713.46
19.6586	-16.065	2705.76
21.6586	-16.065	2706.16
23.6586	-16.065	2703.32
-39.3414	-15.065	2709.77
-37.3414	-15.065	2700.73
-35.3414	-15.065	2694.01
-33.3414	-15.065	2695.35
-31.3414	-15.065	2700.62
-29.3414	-15.065	2701.12
-27.3414	-15.065	2702.86
-25.3414	-15.065	2701.54
-23.3414	-15.065	2702.34
-21.3414	-15.065	2701.95
-19.3414	-15.065	2651.6
-17.3414	-15.065	2698.92
-15.3414	-15.065	2701.74
-13.3414	-15.065	2706.67
-11.3414	-15.065	2701.51
-9.341423	-15.065	2704
-7.341423	-15.065	2703.11
-5.341423	-15.065	2705.78
-3.341423	-15.065	2711.13
-1.341423	-15.065	2710.72
0.658577	-15.065	2706.21
2.658577	-15.065	2712.49
4.658577	-15.065	2708.33
6.658577	-15.065	2703.57
8.658577	-15.065	2707.06
10.6586	-15.065	2704.97
12.6586	-15.065	2702.01
14.6586	-15.065	2700.94
16.6586	-15.065	2695.8
18.6586	-15.065	2711.84
20.6586	-15.065	2707.69
22.6586	-15.065	2700.14
24.6586	-15.065	2692.41
-38.3414	-14.065	2709.37
-36.3414	-14.065	2697.48
-34.3414	-14.065	2700.61
-32.3414	-14.065	2695.35
-30.3414	-14.065	2697.58
-28.3414	-14.065	2705.54
-26.3414	-14.065	2700.98
-24.3414	-14.065	2703.15
-22.3414	-14.065	2699.53
-20.3414	-14.065	2698.2
-18.3414	-14.065	2698.05
-16.3414	-14.065	2705.16
-14.3414	-14.065	2699.68
-12.3414	-14.065	2695.33
-10.3414	-14.065	2704.66
-8.341423	-14.065	2706.4
-6.341423	-14.065	2706.83
-4.341423	-14.065	2710.55
-2.341423	-14.065	2711.3
-0.341423	-14.065	2707.53
1.658577	-14.065	2708.04
3.658577	-14.065	2714.63
5.658577	-14.065	2706.87
7.658577	-14.065	2703.45
9.658577	-14.065	2703.64
11.6586	-14.065	2698.76
13.6586	-14.065	2703.79
15.6586	-14.065	2716.15
17.6586	-14.065	2721.51
19.6586	-14.065	2706.52
21.6586	-14.065	2704.81
23.6586	-14.065	2706.06
-39.3414	-13.065	2702.9
-37.3414	-13.065	2699.82
-35.3414	-13.065	2691.51
-33.3414	-13.065	2695.78
-31.3414	-13.065	2700.26
-29.3414	-13.065	2703.69
-27.3414	-13.065	2699.78
-25.3414	-13.065	2701.25
-23.3414	-13.065	2702.02
-21.3414	-13.065	2704.54
-19.3414	-13.065	2708.81
-17.3414	-13.065	2717.62
-15.3414	-13.065	2705.41
-13.3414	-13.065	2694.77
-11.3414	-13.065	2704.05
-9.341423	-13.065	2707.2
-7.341423	-13.065	2705.79
-5.341423	-13.065	2706.43
-3.341423	-13.065	2708.33
-1.341423	-13.065	2709.71
0.658577	-13.065	2707.56
2.658577	-13.065	2710.34
4.658577	-13.065	2711.49
6.658577	-13.065	2706.09
8.658577	-13.065	2701.64
10.6586	-13.065	2712.85
12.6586	-13.065	2715.15
14.6586	-13.065	2703.34
16.6586	-13.065	2704.95
18.6586	-13.065	2709.45
20.6586	-13.065	2705.78
22.6586	-13.065	2708.05
24.6586	-13.065	2712.31
-38.3414	-12.065	2691.99
-36.3414	-12.065	2694.88
-34.3414	-12.065	2699.72
-32.3414	-12.065	2705.53
-30.3414	-12.065	2704.21
-28.3414	-12.065	2698.84
-26.3414	-12.065	2702.37
-24.3414	-12.065	2701.49
-22.3414	-12.065	2701.75
-20.3414	-12.065	2715.85
-18.3414	-12.065	2712.04
-16.3414	-12.065	2713.43
-14.3414	-12.065	2708.95
-12.3414	-12.065	2704.64
-10.3414	-12.065	2707
-8.341423	-12.065	2708.79
-6.341423	-12.065	2704.78
-4.341423	-12.065	2708.83
-2.341423	-12.065	2707.61
-0.341423	-12.065	2705.7
1.658577	-12.065	2711.55
3.658577	-12.065	2714.8
5.658577	-12.065	2713.71
7.658577	-12.065	2703.9
9.658577	-12.065	2691.95
11.6586	-12.065	2693.77
13.6586	-12.065	2715.76
15.6586	-12.065	2697.06
17.6586	-12.065	2705.03
19.6586	-12.065	2710.21
21.6586	-12.065	2710.9
23.6586	-12.065	2709.58
-39.3414	-11.065	2693.8
-37.3414	-11.065	2702.19
-35.3414	-11.065	2699.91
-33.3414	-11.065	2701.1
-31.3414	-11.065	2702.66
-29.3414	-11.065	2703.5
-27.3414	-11.065	2700.91
-25.3414	-11.065	2699.37
-23.3414	-11.065	2700.76
-21.3414	-11.065	2711.04
-19.3414	-11.065	2708.96
-17.3414	-11.065	2710.16
-15.3414	-11.065	2708.83
-13.3414	-11.065	2711.96
-11.3414	-11.065	2703.11
-9.341423	-11.065	2706.74
-7.341423	-11.065	2708.84
-5.341423	-11.065	2709.81
-3.341423	-11.065	2710.25
-1.341423	-11.065	2707.87
0.658577	-11.065	2712.32
2.658577	-11.065	2708.11
4.658577	-11.065	2715.93
6.658577	-11.065	2713.1
8.658577	-11.065	2704.63
10.6586	-11.065	2651.77
12.6586	-11.065	2704.28
14.6586	-11.065	2700.15
16.6586	-11.065	2703
18.6586	-11.065	2713.4
20.6586	-11.065	2714.97
22.6586	-11.065	2716.32
24.6586	-11.065	2705
-38.3414	-10.065	2701.89
-36.3414	-10.065	2701.78
-34.3414	-10.065	2700.82
-32.3414	-10.065	2693.04
-30.3414	-10.065	2696.27
-28.3414	-10.065	2694.2
-26.3414	-10.065	2703.31
-24.3414	-10.065	2701.51
-22.3414	-10.065	2698.09
-20.3414	-10.065	2701.4
-18.3414	-10.065	2708.74
-16.3414	-10.065	2708.24
-14.3414	-10.065	2703.17
-12.3414	-10.065	2703.66
-10.3414	-10.065	2704.21
-8.341423	-10.065	2712.47
-6.341423	-10.065	2712.77
-4.341423	-10.065	2714.97
-2.341423	-10.065	2712.44
-0.341423	-10.065	2707.72
1.658577	-10.065	2706.21
3.658577	-10.065	2718.06
5.658577	-10.065	2710.58
7.658577	-10.065	2699.22
9.658577	-10.065	2650
11.6586	-10.065	2650
13.6586	-10.065	2711.02
15.6586	-10.065	2705.3
17.6586	-10.065	2713.08
19.6586	-10.065	2715.72
21.6586	-10.065	2717
23.6586	-10.065	2712.03
-39.3414	-9.065000	2694.16
-37.3414	-9.065000	2701.6
-35.3414	-9.065000	2699.15
-33.3414	-9.065000	2693.32
-31.3414	-9.065000	2699.68
-29.3414	-9.065000	2702.21
-27.3414	-9.065000	2701.49
-25.3414	-9.065000	2706.14
-23.3414	-9.065000	2717.3
-21.3414	-9.065000	2705.52
-19.3414	-9.065000	2706.34
-17.3414	-9.065000	2704.09
-15.3414	-9.065000	2703.69
-13.3414	-9.065000	2707.37
-11.3414	-9.065000	2701.63
-9.341423	-9.065000	2700.97
-7.341423	-9.065000	2711.15
-5.341423	-9.065000	2716.63
-3.341423	-9.065000	2716.05
-1.341423	-9.065000	2709.31
0.658577	-9.065000	2703.15
2.658577	-9.065000	2714.23
4.658577	-9.065000	2713.24
6.658577	-9.065000	2698.82
8.658577	-9.065000	2699.64
10.6586	-9.065000	2665.21
12.6586	-9.065000	2705.9
14.6586	-9.065000	2711.78
16.6586	-9.065000	2713.1
18.6586	-9.065000	2717.46
20.6586	-9.065000	2719.17
22.6586	-9.065000	2715.44
24.6586	-9.065000	2702.65
-38.3414	-8.065000	2703.57
-36.3414	-8.065000	2694.58
-34.3414	-8.065000	2700.99
-32.3414	-8.065000	2692.5
-30.3414	-8.065000	2703.33
-28.3414	-8.065000	2702.79
-26.3414	-8.065000	2705.03
-24.3414	-8.065000	2710.66
-22.3414	-8.065000	2718.48
-20.3414	-8.065000	2713.31
-18.3414	-8.065000	2704.71
-16.3414	-8.065000	2702.49
-14.3414	-8.065000	2705.12
-12.3414	-8.065000	2707.02
-10.3414	-8.065000	2696.81
-8.341423	-8.065000	2690.41
-6.341423	-8.065000	2716.21
-4.341423	-8.065000	2711.96
-2.341423	-8.065000	2715.4
-0.341423	-8.065000	2707.79
1.658577	-8.065000	2697.35
3.658577	-8.065000	2700.46
5.658577	-8.065000	2698.44
7.658577	-8.065000	2696.46
9.658577	-8.065000	2650
11.6586	-8.065000	2687.1
13.6586	-8.065000	2712.27
15.6586	-8.065000	2707.59
17.6586	-8.065000	2709.58
19.6586	-8.065000	2719.03
21.6586	-8.065000	2719.66
23.6586	-8.065000	2707.57
-39.3414	-7.065000	2701.98
-37.3414	-7.065000	2698.95
-35.3414	-7.065000	2700.99
-33.3414	-7.065000	2699.74
-31.3414	-7.065000	2703.73
-29.3414	-7.065000	2704.14
-27.3414	-7.065000	2700.66
-25.3414	-7.065000	2700.24
-23.3414	-7.065000	2711.51
-21.3414	-7.065000	2715.84
-19.3414	-7.065000	2702.19
-17.3414	-7.065000	2703.17
-15.3414	-7.065000	2707.78
-13.3414	-7.065000	2703.02
-11.3414	-7.065000	2704.85
-9.341423	-7.065000	2704.51
-7.341423	-7.065000	2724.74
-5.341423	-7.065000	2714.06
-3.341423	-7.065000	2704.01
-1.341423	-7.065000	2692.19
0.658577	-7.065000	2679.1
2.658577	-7.065000	2704.27
4.658577	-7.065000	2702.17
6.658577	-7.065000	2696.18
8.658577	-7.065000	2652.8
10.6586	-7.065000	2703.2
12.6586	-7.065000	2700.72
14.6586	-7.065000	2702
16.6586	-7.065000	2710.76
18.6586	-7.065000	2710.12
20.6586	-7.065000	2715.07
22.6586	-7.065000	2710.37
24.6586	-7.065000	2704.51
-38.3414	-6.065000	2701.39
-36.3414	-6.065000	2702.1
-34.3414	-6.065000	2703.74
-32.3414	-6.065000	2699.45
-30.3414	-6.065000	2703.05
-28.3414	-6.065000	2700.97
-26.3414	-6.065000	2703.57
-24.3414	-6.065000	2693.33
-22.3414	-6.065000	2703.19
-20.3414	-6.065000	2703.74
-18.3414	-6.065000	2750
-16.3414	-6.065000	2704.92
-14.3414	-6.065000	2701.27
-12.3414	-6.065000	2697.51
-10.3414	-6.065000	2702.99
-8.341423	-6.065000	2701.78
-6.341423	-6.065000	2701.39
-4.341423	-6.065000	2650
-2.341423	-6.065000	2702.65
-0.341423	-6.065000	2706.9
1.658577	-6.065000	2750
3.658577	-6.065000	2699.62
5.658577	-6.065000	2698.38
7.658577	-6.065000	2699.68
9.658577	-6.065000	2713.16
11.6586	-6.065000	2705.33
13.6586	-6.065000	2702.95
15.6586	-6.065000	2707.9
17.6586	-6.065000	2711.42
19.6586	-6.065000	2715.66
21.6586	-6.065000	2712.34
23.6586	-6.065000	2705.39
-39.3414	-5.065000	2704.72
-37.3414	-5.065000	2698.37
-35.3414	-5.065000	2704.42
-33.3414	-5.065000	2696.84
-31.3414	-5.065000	2696.88
-29.3414	-5.065000	2698.73
-27.3414	-5.065000	2702.79
-25.3414	-5.065000	2704.9
-23.3414	-5.065000	2696.8
-21.3414	-5.065000	2702.79
-19.3414	-5.065000	2750
-17.3414	-5.065000	2698.47
-15.3414	-5.065000	2704.31
-13.3414	-5.065000	2705.71
-11.3414	-5.065000	2692.9
-9.341423	-5.065000	2701.79
-7.341423	-5.065000	2704.5
-5.341423	-5.065000	2700.76
-3.341423	-5.065000	2650
-1.341423	-5.065000	2709.78
0.658577	-5.065000	2701.74
2.658577	-5.065000	2703.76
4.658577	-5.065000	2697.07
6.658577	-5.065000	2706.4
8.658577	-5.065000	2707.79
10.6586	-5.065000	2704.59
12.6586	-5.065000	2701.52
14.6586	-5.065000	2704.25
16.6586	-5.065000	2702.61
18.6586	-5.065000	2712.41
20.6586	-5.065000	2712.81
22.6586	-5.065000	2705.15
24.6586	-5.065000	2710.01
-38.3414	-4.065000	2709.46
-36.3414	-4.065000	2705.45
-34.3414	-4.065000	2698
-32.3414	-4.065000	2689.62
-30.3414	-4.065000	2701.51
-28.3414	-4.065000	2699.63
-26.3414	-4.065000	2703.37
-24.3414	-4.065000	2702.06
-22.3414	-4.065000	2703.77
-20.3414	-4.065000	2703.33
-18.3414	-4.065000	2706.98
-16.3414	-4.065000	2698.93
-14.3414	-4.065000	2703.64
-12.3414	-4.065000	2706.2
-10.3414	-4.065000	2707.35
-8.341423	-4.065000	2704.27
-6.341423	-4.065000	2711.09
-4.341423	-4.065000	2712.48
-2.341423	-4.065000	2691.25
-0.341423	-4.065000	2702.06
1.658577	-4.065000	2703.98
3.658577	-4.065000	2737.33
5.658577	-4.065000	2704.13
7.658577	-4.065000	2697.55
9.658577	-4.065000	2699.51
11.6586	-4.065000	2708.4
13.6586	-4.065000	2697.93
15.6586	-4.065000	2704.71
17.6586	-4.065000	2700.8
19.6586	-4.065000	2705.39
21.6586	-4.065000	2703.21
23.6586	-4.065000	2707.28
-39.3414	-3.065000	2650
-37.3414	-3.065000	2707.08
-35.3414	-3.065000	2708.75
-33.3414	-3.065000	2699.89
-31.3414	-3.065000	2701.91
-29.3414	-3.065000	2690.64
-27.3414	-3.065000	2705.02
-25.3414	-3.065000	2709.73
-23.3414	-3.065000	2703.34
-21.3414	-3.065000	2698.84
-19.3414	-3.065000	2704.9
-17.3414	-3.065000	2700.29
-15.3414	-3.065000	2708.72
-13.3414	-3.065000	2702.65
-11.3414	-3.065000	2710.28
-9.341423	-3.065000	2708.25
-7.341423	-3.065000	2715.93
-5.341423	-3.065000	2708.79
-3.341423	-3.065000	2702.91
-1.341423	-3.065000	2695.22
0.658577	-3.065000	2697.23
2.658577	-3.065000	2750
4.658577	-3.065000	2710.87
6.658577	-3.065000	2705.48
8.658577	-3.065000	2701.75
10.6586	-3.065000	2706.57
12.6586	-3.065000	2694.65
14.6586	-3.065000	2696.95
16.6586	-3.065000	2701.22
18.6586	-3.065000	2702.96
20.6586	-3.065000	2709.31
22.6586	-3.065000	2713.61
24.6586	-3.065000	2710.46
-38.3414	-2.065000	2699.77
-36.3414	-2.065000	2705.29
-34.3414	-2.065000	2704.82
-32.3414	-2.065000	2705.26
-30.3414	-2.065000	2699.23
-28.3414	-2.065000	2650
-26.3414	-2.065000	2700.5
-24.3414	-2.065000	2702.76
-22.3414	-2.065000	2701.45
-20.3414	-2.065000	2704.03
-18.3414	-2.065000	2714.1
-16.3414	-2.065000	2709.92
-14.3414	-2.065000	2706.24
-12.3414	-2.065000	2706.18
-10.3414	-2.065000	2705.79
-8.341423	-2.065000	2710.38
-6.341423	-2.065000	2710.7
-4.341423	-2.065000	2715.22
-2.341423	-2.065000	2701.88
-0.341423	-2.065000	2692.58
1.658577	-2.065000	2695.02
3.658577	-2.065000	2695.8
5.658577	-2.065000	2705.62
7.658577	-2.065000	2703.26
9.658577	-2.065000	2704.67
11.6586	-2.065000	2706.13
13.6586	-2.065000	2697.56
15.6586	-2.065000	2701.85
17.6586	-2.065000	2703.85
19.6586	-2.065000	2706.02
21.6586	-2.065000	2696.21
23.6586	-2.065000	2712.57
-39.3414	-1.065000	2720.18
-37.3414	-1.065000	2708.9
-35.3414	-1.065000	2712.57
-33.3414	-1.065000	2713.09
-31.3414	-1.065000	2706.89
-29.3414	-1.065000	2712.5
-27.3414	-1.065000	2716.1
-25.3414	-1.065000	2709.29
-23.3414	-1.065000	2695.9
-21.3414	-1.065000	2699.52
-19.3414	-1.065000	2697.28
-17.3414	-1.065000	2710.31
-15.3414	-1.065000	2706.58
-13.3414	-1.065000	2704.55
-11.3414	-1.065000	2707.04
-9.341423	-1.065000	2710.51
-7.341423	-1.065000	2708.54
-5.341423	-1.065000	2704.91
-3.341423	-1.065000	2716.36
-1.341423	-1.065000	2694.16
0.658577	-1.065000	2700.66
2.658577	-1.065000	2700.37
4.658577	-1.065000	2710.15
6.658577	-1.065000	2706.06
8.658577	-1.065000	2706.15
10.6586	-1.065000	2702.96
12.6586	-1.065000	2704.42
14.6586	-1.065000	2699.35
16.6586	-1.065000	2703.65
18.6586	-1.065000	2708.37
20.6586	-1.065000	2701.94
22.6586	-1.065000	2710.69
24.6586	-1.065000	2714.28
-38.3414	-0.065000	2718.84
-36.3414	-0.065000	2721.1
-34.3414	-0.065000	2717.45
-32.3414	-0.065000	2715.45
-30.3414	-0.065000	2718.63
-28.3414	-0.065000	2750
-26.3414	-0.065000	2701.97
-24.3414	-0.065000	2704.2
-22.3414	-0.065000	2701.72
-20.3414	-0.065000	2704.1
-18.3414	-0.065000	2707
-16.3414	-0.065000	2709.75
-14.3414	-0.065000	2705.3
-12.3414	-0.065000	2706.87
-10.3414	-0.065000	2710.15
-8.341423	-0.065000	2712.16
-6.341423	-0.065000	2706.64
-4.341423	-0.065000	2712.08
-2.341423	-0.065000	2702.25
-0.341423	-0.065000	2694.13
1.658577	-0.065000	2697.7
3.658577	-0.065000	2709.58
5.658577	-0.065000	2705.39
7.658577	-0.065000	2702.03
9.658577	-0.065000	2699.92
11.6586	-0.065000	2701.32
13.6586	-0.065000	2698.27
15.6586	-0.065000	2701.7
17.6586	-0.065000	2705.8
19.6586	-0.065000	2715.13
21.6586	-0.065000	2700.85
23.6586	-0.065000	2710.54
-39.3414	0.935000	2721.48
-37.3414	0.935000	2721.65
-35.3414	0.935000	2718.76
-33.3414	0.935000	2711.7
-31.3414	0.935000	2708.89
-29.3414	0.935000	2704.76
-27.3414	0.935000	2660.74
-25.3414	0.935000	2698.23
-23.3414	0.935000	2703.32
-21.3414	0.935000	2703.92
-19.3414	0.935000	2702.51
-17.3414	0.935000	2712.2
-15.3414	0.935000	2703.99
-13.3414	0.935000	2703.23
-11.3414	0.935000	2696.76
-9.341423	0.935000	2709.69
-7.341423	0.935000	2709.11
-5.341423	0.935000	2698.22
-3.341423	0.935000	2702.09
-1.341423	0.935000	2702
0.658577	0.935000	2697.06
2.658577	0.935000	2709.19
4.658577	0.935000	2706.98
6.658577	0.935000	2700.75
8.658577	0.935000	2702.71
10.6586	0.935000	2704.53
12.6586	0.935000	2701.82
14.6586	0.935000	2705.55
16.6586	0.935000	2701.28
18.6586	0.935000	2698.77
20.6586	0.935000	2696.89
22.6586	0.935000	2697.69
24.6586	0.935000	2709.51
-38.3414	1.935000	2718.22
-36.3414	1.935000	2709.41
-34.3414	1.935000	2712.71
-32.3414	1.935000	2702.42
-30.3414	1.935000	2701.66
-28.3414	1.935000	2681.03
-26.3414	1.935000	2700.19
-24.3414	1.935000	2713.37
-22.3414	1.935000	2705.78
-20.3414	1.935000	2700.18
-18.3414	1.935000	2718.09
-16.3414	1.935000	2707.75
-14.3414	1.935000	2705.58
-12.3414	1.935000	2695.09
-10.3414	1.935000	2705.09
-8.341423	1.935000	2704.5
-6.341423	1.935000	2704.26
-4.341423	1.935000	2692.48
-2.341423	1.935000	2703.44
-0.341423	1.935000	2698.98
1.658577	1.935000	2704.81
3.658577	1.935000	2709.26
5.658577	1.935000	2701.28
7.658577	1.935000	2697.46
9.658577	1.935000	2694.77
11.6586	1.935000	2702.15
13.6586	1.935000	2694.79
15.6586	1.935000	2701.99
17.6586	1.935000	2703.87
19.6586	1.935000	2700.19
21.6586	1.935000	2698.42
23.6586	1.935000	2699.03
-39.3414	2.935000	2717.73
-37.3414	2.935000	2705.33
-35.3414	2.935000	2707.91
-33.3414	2.935000	2712.52
-31.3414	2.935000	2702.3
-29.3414	2.935000	2704.2
-27.3414	2.935000	2705.47
-25.3414	2.935000	2706.56
-23.3414	2.935000	2711.04
-21.3414	2.935000	2704.44
-19.3414	2.935000	2697.4
-17.3414	2.935000	2717.17
-15.3414	2.935000	2737.92
-13.3414	2.935000	2704.73
-11.3414	2.935000	2703.16
-9.341423	2.935000	2701.75
-7.341423	2.935000	2704.67
-5.341423	2.935000	2695.06
-3.341423	2.935000	2699.32
-1.341423	2.935000	2698.42
0.658577	2.935000	2699.75
2.658577	2.935000	2707.31
4.658577	2.935000	2709.66
6.658577	2.935000	2703.48
8.658577	2.935000	2703.87
10.6586	2.935000	2696.72
12.6586	2.935000	2705.34
14.6586	2.935000	2703.72
16.6586	2.935000	2702.8
18.6586	2.935000	2700.66
20.6586	2.935000	2706.55
22.6586	2.935000	2696.89
24.6586	2.935000	2707.84
-38.3414	3.935000	2703.81
-36.3414	3.935000	2711.51
-34.3414	3.935000	2716.25
-32.3414	3.935000	2706.28
-30.3414	3.935000	2701.37
-28.3414	3.935000	2706.73
-26.3414	3.935000	2702.87
-24.3414	3.935000	2706.11
-22.3414	3.935000	2706.88
-20.3414	3.935000	2699.77
-18.3414	3.935000	2702.38
-16.3414	3.935000	2701.05
-14.3414	3.935000	2694.4
-12.3414	3.935000	2704.54
-10.3414	3.935000	2703.47
-8.341423	3.935000	2711.96
-6.341423	3.935000	2705.11
-4.341423	3.935000	2703.55
-2.341423	3.935000	2698.3
-0.341423	3.935000	2693.01
1.658577	3.935000	2700.76
3.658577	3.935000	2710.84
5.658577	3.935000	2705.67
7.658577	3.935000	2701.03
9.658577	3.935000	2700.69
11.6586	3.935000	2706.11
13.6586	3.935000	2703.68
15.6586	3.935000	2703.67
17.6586	3.935000	2702.12
19.6586	3.935000	2691.05
21.6586	3.935000	2695.81
23.6586	3.935000	2704.93
-39.3414	4.935000	2694.44
-37.3414	4.935000	2693.83
-35.3414	4.935000	2701.08
-33.3414	4.935000	2710.56
-31.3414	4.935000	2704.76
-29.3414	4.935000	2703.28
-27.3414	4.935000	2706.68
-25.3414	4.935000	2703.86
-23.3414	4.935000	2709.03
-21.3414	4.935000	2708.56
-19.3414	4.935000	2705.65
-17.3414	4.935000	2702.5
-15.3414	4.935000	2699.16
-13.3414	4.935000	2750
-11.3414	4.935000	2702.11
-9.341423	4.935000	2705.51
-7.341423	4.935000	2709.98
-5.341423	4.935000	2707.06
-3.341423	4.935000	2693.29
-1.341423	4.935000	2701.63
0.658577	4.935000	2691.95
2.658577	4.935000	2706.11
4.658577	4.935000	2704.57
6.658577	4.935000	2699.53
8.658577	4.935000	2701.4
10.6586	4.935000	2705.92
12.6586	4.935000	2705.01
14.6586	4.935000	2702.2
16.6586	4.935000	2699.25
18.6586	4.935000	2694.71
20.6586	4.935000	2701.62
22.6586	4.935000	2700.1
24.6586	4.935000	2706.19
-38.3414	5.935000	2705.42
-36.3414	5.935000	2701.66
-34.3414	5.935000	2705.63
-32.3414	5.935000	2703.73
-30.3414	5.935000	2698.86
-28.3414	5.935000	2693.51
-26.3414	5.935000	2703.36
-24.3414	5.935000	2706.03
-22.3414	5.935000	2708.14
-20.3414	5.935000	2703.1
-18.3414	5.935000	2704.76
-16.3414	5.935000	2702.72
-14.3414	5.935000	2706.16
-12.3414	5.935000	2700.61
-10.3414	5.935000	2700.21
-8.341423	5.935000	2708.02
-6.341423	5.935000	2707.77
-4.341423	5.935000	2720.94
-2.341423	5.935000	2700.55
-0.341423	5.935000	2699.43
1.658577	5.935000	2691.83
3.658577	5.935000	2697.04
5.658577	5.935000	2706.3
7.658577	5.935000	2707.75
9.658577	5.935000	2699.25
11.6586	5.935000	2703.16
13.6586	5.935000	2705.02
15.6586	5.935000	2690.54
17.6586	5.935000	2705.16
19.6586	5.935000	2696.18
21.6586	5.935000	2698.8
23.6586	5.935000	2705.29
-39.3414	6.935000	2703.54
-37.3414	6.935000	2707.94
-35.3414	6.935000	2705.53
-33.3414	6.935000	2708.25
-31.3414	6.935000	2705.71
-29.3414	6.935000	2703.16
-27.3414	6.935000	2711.6
-25.3414	6.935000	2702.07
-23.3414	6.935000	2709.13
-21.3414	6.935000	2706.67
-19.3414	6.935000	2695.67
-17.3414	6.935000	2702.18
-15.3414	6.935000	2706.76
-13.3414	6.935000	2705.53
-11.3414	6.935000	2700.13
-9.341423	6.935000	2705.59
-7.341423	6.935000	2708.14
-5.341423	6.935000	2708.13
-3.341423	6.935000	2702.84
-1.341423	6.935000	2696.59
0.658577	6.935000	2694.75
2.658577	6.935000	2699.23
4.658577	6.935000	2705.6
6.658577	6.935000	2704.88
8.658577	6.935000	2706.7
10.6586	6.935000	2696.5
12.6586	6.935000	2700.6
14.6586	6.935000	2698.8
16.6586	6.935000	2698.79
18.6586	6.935000	2697.4
20.6586	6.935000	2699.9
22.6586	6.935000	2703.14
24.6586	6.935000	2703.06
-38.3414	7.935000	2701.65
-36.3414	7.935000	2701.22
-34.3414	7.935000	2705.71
-32.3414	7.935000	2705.54
-30.3414	7.935000	2705.66
-28.3414	7.935000	2710.56
-26.3414	7.935000	2709.72
-24.3414	7.935000	2706
-22.3414	7.935000	2710.44
-20.3414	7.935000	2706.27
-18.3414	7.935000	2702.76
-16.3414	7.935000	2702.96
-14.3414	7.935000	2707.83
-12.3414	7.935000	2705.09
-10.3414	7.935000	2701.73
-8.341423	7.935000	2705.33
-6.341423	7.935000	2708.92
-4.341423	7.935000	2701.6
-2.341423	7.935000	2694.33
-0.341423	7.935000	2699.87
1.658577	7.935000	2701.12
3.658577	7.935000	2708.88
5.658577	7.935000	2711.02
7.658577	7.935000	2704.63
9.658577	7.935000	2707.03
11.6586	7.935000	2708.08
13.6586	7.935000	2696.87
15.6586	7.935000	2696.53
17.6586	7.935000	2702.14
19.6586	7.935000	2715.03
21.6586	7.935000	2690.37
23.6586	7.935000	2701.88
-39.3414	8.935000	2692.65
-37.3414	8.935000	2698.05
-35.3414	8.935000	2703.26
-33.3414	8.935000	2700.87
-31.3414	8.935000	2702.21
-29.3414	8.935000	2703.33
-27.3414	8.935000	2704.82
-25.3414	8.935000	2705.67
-23.3414	8.935000	2707.55
-21.3414	8.935000	2708.56
-19.3414	8.935000	2705.82
-17.3414	8.935000	2703.05
-15.3414	8.935000	2693.93
-13.3414	8.935000	2706.53
-11.3414	8.935000	2706.42
-9.341423	8.935000	2703.15
-7.341423	8.935000	2704.48
-5.341423	8.935000	2705.36
-3.341423	8.935000	2701.51
-1.341423	8.935000	2694.99
0.658577	8.935000	2690.97
2.658577	8.935000	2702.99
4.658577	8.935000	2707.14
6.658577	8.935000	2719.4
8.658577	8.935000	2711.23
10.6586	8.935000	2707.28
12.6586	8.935000	2702.83
14.6586	8.935000	2697.78
16.6586	8.935000	2703.01
18.6586	8.935000	2696.88
20.6586	8.935000	2750
22.6586	8.935000	2702.84
24.6586	8.935000	2700.47
-38.3414	9.935000	2701.36
-36.3414	9.935000	2703.4
-34.3414	9.935000	2695.49
-32.3414	9.935000	2697.17
-30.3414	9.935000	2702.03
-28.3414	9.935000	2703.05
-26.3414	9.935000	2705.94
-24.3414	9.935000	2709.03
-22.3414	9.935000	2701.24
-20.3414	9.935000	2704.44
-18.3414	9.935000	2705.41
-16.3414	9.935000	2697.12
-14.3414	9.935000	2702.8
-12.3414	9.935000	2705.58
-10.3414	9.935000	2702.49
-8.341423	9.935000	2701.23
-6.341423	9.935000	2699.27
-4.341423	9.935000	2703.77
-2.341423	9.935000	2704.94
-0.341423	9.935000	2703.66
1.658577	9.935000	2701.36
3.658577	9.935000	2714.25
5.658577	9.935000	2713.92
7.658577	9.935000	2711.43
9.658577	9.935000	2701.84
11.6586	9.935000	2705.48
13.6586	9.935000	2700.22
15.6586	9.935000	2710.02
17.6586	9.935000	2677.15
19.6586	9.935000	2650
21.6586	9.935000	2699.42
23.6586	9.935000	2691.11
-39.3414	10.935	2702.79
-37.3414	10.935	2704.44
-35.3414	10.935	2703.2
-33.3414	10.935	2701.29
-31.3414	10.935	2702.91
-29.3414	10.935	2697.73
-27.3414	10.935	2705.65
-25.3414	10.935	2710.03
-23.3414	10.935	2702.64
-21.3414	10.935	2703.5
-19.3414	10.935	2705.64
-17.3414	10.935	2701.9
-15.3414	10.935	2700.74
-13.3414	10.935	2703.6
-11.3414	10.935	2706.92
-9.341423	10.935	2701.8
-7.341423	10.935	2702.56
-5.341423	10.935	2696.82
-3.341423	10.935	2703.99
-1.341423	10.935	2699.88
0.658577	10.935	2707.66
2.658577	10.935	2710.07
4.658577	10.935	2717.89
6.658577	10.935	2716.18
8.658577	10.935	2704.82
10.6586	10.935	2705.58
12.6586	10.935	2704.1
14.6586	10.935	2650
16.6586	10.935	2650
18.6586	10.935	2650
20.6586	10.935	2698.76
22.6586	10.935	2694.49
24.6586	10.935	2696.61
-38.3414	11.935	2703.75
-36.3414	11.935	2702.14
-34.3414	11.935	2699.43
-32.3414	11.935	2703.75
-30.3414	11.935	2703.92
-28.3414	11.935	2700.31
-26.3414	11.935	2704.96
-24.3414	11.935	2701.52
-22.3414	11.935	2706.56
-20.3414	11.935	2702.45
-18.3414	11.935	2705.43
-16.3414	11.935	2703.79
-14.3414	11.935	2701.17
-12.3414	11.935	2709.77
-10.3414	11.935	2709.45
-8.341423	11.935	2704.79
-6.341423	11.935	2701.14
-4.341423	11.935	2702.76
-2.341423	11.935	2707.62
-0.341423	11.935	2701.18
1.658577	11.935	2709.2
3.658577	11.935	2716.49
5.658577	11.935	2712.58
7.658577	11.935	2702.48
9.658577	11.935	2708.21
11.6586	11.935	2707.6
13.6586	11.935	2700.86
15.6586	11.935	2750
17.6586	11.935	2650
19.6586	11.935	2650
21.6586	11.935	2700.19
23.6586	11.935	2698.39
-39.3414	12.935	2701.18
-37.3414	12.935	2699.93
-35.3414	12.935	2703.86
-33.3414	12.935	2703.29
-31.3414	12.935	2703.13
-29.3414	12.935	2699.92
-27.3414	12.935	2696.02
-25.3414	12.935	2717.12
-23.3414	12.935	2699.1
-21.3414	12.935	2700.52
-19.3414	12.935	2703.08
-17.3414	12.935	2705.24
-15.3414	12.935	2702.79
-13.3414	12.935	2703.91
-11.3414	12.935	2706.32
-9.341423	12.935	2704.2
-7.341423	12.935	2704.91
-5.341423	12.935	2707.48
-3.341423	12.935	2697.43
-1.341423	12.935	2703.57
0.658577	12.935	2708.66
2.658577	12.935	2706.36
4.658577	12.935	2720.15
6.658577	12.935	2700.51
8.658577	12.935	2706.36
10.6586	12.935	2705.78
12.6586	12.935	2708.51
14.6586	12.935	2650
16.6586	12.935	2750
18.6586	12.935	2650
20.6586	12.935	2650
22.6586	12.935	2701.7
24.6586	12.935	2697.93
-38.3414	13.935	2703.82
-36.3414	13.935	2701.27
-34.3414	13.935	2697.29
-32.3414	13.935	2700.82
-30.3414	13.935	2695.98
-28.3414	13.935	2701.82
-26.3414	13.935	2701.85
-24.3414	13.935	2703.94
-22.3414	13.935	2703.58
-20.3414	13.935	2702.86
-18.3414	13.935	2702.8
-16.3414	13.935	2705.05
-14.3414	13.935	2701.57
-12.3414	13.935	2706.15
-10.3414	13.935	2701.78
-8.341423	13.935	2715.05
-6.341423	13.935	2701.69
-4.341423	13.935	2698.18
-2.341423	13.935	2704.96
-0.341423	13.935	2703.38
1.658577	13.935	2706.41
3.658577	13.935	2712.88
5.658577	13.935	2704.86
7.658577	13.935	2701.09
9.658577	13.935	2703.69
11.6586	13.935	2707.09
13.6586	13.935	2707.64
15.6586	13.935	2650
17.6586	13.935	2650
19.6586	13.935	2650
21.6586	13.935	2650
23.6586	13.935	2650
-39.3414	14.935	2693.59
-37.3414	14.935	2701.14
-35.3414	14.935	2693.4
-33.3414	14.935	2706.11
-31.3414	14.935	2703.39
-29.3414	14.935	2701.81
-27.3414	14.935	2701.14
-25.3414	14.935	2700.98
-23.3414	14.935	2699.12
-21.3414	14.935	2701.98
-19.3414	14.935	2704.42
-17.3414	14.935	2705.03
-15.3414	14.935	2704.14
-13.3414	14.935	2698.44
-11.3414	14.935	2701.85
-9.341423	14.935	2695.13
-7.341423	14.935	2701.45
-5.341423	14.935	2710.17
-3.341423	14.935	2698.34
-1.341423	14.935	2700.42
0.658577	14.935	2710.84
2.658577	14.935	2707.61
4.658577	14.935	2650
6.658577	14.935	2730.09
8.658577	14.935	2702.69
10.6586	14.935	2706.46
12.6586	14.935	2695.78
14.6586	14.935	2650
16.6586	14.935	2686.35
18.6586	14.935	2689.67
20.6586	14.935	2650
22.6586	14.935	2676
24.6586	14.935	2664.24
-38.3414	15.935	2704.56
-36.3414	15.935	2697.99
-34.3414	15.935	2703.83
-32.3414	15.935	2699.82
-30.3414	15.935	2709.16
-28.3414	15.935	2699.15
-26.3414	15.935	2700.45
-24.3414	15.935	2698.06
-22.3414	15.935	2708.01
-20.3414	15.935	2706.75
-18.3414	15.935	2700.41
-16.3414	15.935	2702.11
-14.3414	15.935	2694.68
-12.3414	15.935	2694.7
-10.3414	15.935	2704.14
-8.341423	15.935	2711.08
-6.341423	15.935	2702.13
-4.341423	15.935	2717.4
-2.341423	15.935	2706.89
-0.341423	15.935	2708.37
1.658577	15.935	2706.55
3.658577	15.935	2699.38
5.658577	15.935	2650
7.658577	15.935	2684.75
9.658577	15.935	2703.27
11.6586	15.935	2700.53
13.6586	15.935	2697.05
15.6586	15.935	2723.75
17.6586	15.935	2650
19.6586	15.935	2650
21.6586	15.935	2650
23.6586	15.935	2705.5
24.6586	15.935	2650