File: data/derived_data/raman/20170920_Gr-NH2_for_Radisurf/20170920 Gr-NH for Radisurf map 2/2Dp pos.txt
#XList		#YList		#IList
-39.3414	-21.065	3175.49
-37.3414	-21.065	3176.47
-35.3414	-21.065	3160.85
-33.3414	-21.065	3158.64
-31.3414	-21.065	3159.73
-29.3414	-21.065	3160.13
-27.3414	-21.065	3170.26
-25.3414	-21.065	3168.58
-23.3414	-21.065	3100
-21.3414	-21.065	3171.58
-19.3414	-21.065	3100
-17.3414	-21.065	3173.97
-15.3414	-21.065	3157.45
-13.3414	-21.065	3153
-11.3414	-21.065	3166.15
-9.341423	-21.065	3128.7
-7.341423	-21.065	3176.74
-5.341423	-21.065	3164.62
-3.341423	-21.065	3161.39
-1.341423	-21.065	3164.31
0.658577	-21.065	3158.95
2.658577	-21.065	3160.61
4.658577	-21.065	3196.13
6.658577	-21.065	3350
8.658577	-21.065	3100
10.6586	-21.065	3177.32
12.6586	-21.065	3173.97
14.6586	-21.065	3166.15
16.6586	-21.065	3174.27
18.6586	-21.065	3163.15
20.6586	-21.065	3161.59
22.6586	-21.065	3223.19
24.6586	-21.065	3154.15
-38.3414	-20.065	3150.25
-36.3414	-20.065	3219.55
-34.3414	-20.065	3166.54
-32.3414	-20.065	3350
-30.3414	-20.065	3346.14
-28.3414	-20.065	3157.83
-26.3414	-20.065	3168.36
-24.3414	-20.065	3172.24
-22.3414	-20.065	3161.25
-20.3414	-20.065	3172.83
-18.3414	-20.065	3173.35
-16.3414	-20.065	3157.02
-14.3414	-20.065	3157.08
-12.3414	-20.065	3164.16
-10.3414	-20.065	3183.86
-8.341423	-20.065	3160.87
-6.341423	-20.065	3176.07
-4.341423	-20.065	3170.63
-2.341423	-20.065	3161.45
-0.341423	-20.065	3166.3
1.658577	-20.065	3175.95
3.658577	-20.065	3154.05
5.658577	-20.065	3217.59
7.658577	-20.065	3100
9.658577	-20.065	3185.66
11.6586	-20.065	3170.76
13.6586	-20.065	3164.01
15.6586	-20.065	3152.87
17.6586	-20.065	3172.9
19.6586	-20.065	3161.83
21.6586	-20.065	3168.1
23.6586	-20.065	3350
-39.3414	-19.065	3159.39
-37.3414	-19.065	3171.76
-35.3414	-19.065	3137.09
-33.3414	-19.065	3169.58
-31.3414	-19.065	3158.5
-29.3414	-19.065	3165.5
-27.3414	-19.065	3165.44
-25.3414	-19.065	3161.51
-23.3414	-19.065	3168.61
-21.3414	-19.065	3160.08
-19.3414	-19.065	3163.42
-17.3414	-19.065	3159.57
-15.3414	-19.065	3159.84
-13.3414	-19.065	3159.97
-11.3414	-19.065	3167.01
-9.341423	-19.065	3161.87
-7.341423	-19.065	3173.51
-5.341423	-19.065	3180.05
-3.341423	-19.065	3170.47
-1.341423	-19.065	3176.57
0.658577	-19.065	3192.57
2.658577	-19.065	3163.36
4.658577	-19.065	3162.23
6.658577	-19.065	3100
8.658577	-19.065	3169.03
10.6586	-19.065	3178.62
12.6586	-19.065	3163.25
14.6586	-19.065	3169.48
16.6586	-19.065	3164.39
18.6586	-19.065	3160.99
20.6586	-19.065	3171.33
22.6586	-19.065	3175.59
24.6586	-19.065	3289.57
-38.3414	-18.065	3145.91
-36.3414	-18.065	3168.08
-34.3414	-18.065	3241.27
-32.3414	-18.065	3161.35
-30.3414	-18.065	3159.71
-28.3414	-18.065	3158.3
-26.3414	-18.065	3164.67
-24.3414	-18.065	3165.14
-22.3414	-18.065	3171.85
-20.3414	-18.065	3165
-18.3414	-18.065	3165.34
-16.3414	-18.065	3150.93
-14.3414	-18.065	3159.09
-12.3414	-18.065	3152.85
-10.3414	-18.065	3164.07
-8.341423	-18.065	3160.52
-6.341423	-18.065	3162.57
-4.341423	-18.065	3153.43
-2.341423	-18.065	3169.88
-0.341423	-18.065	3171.7
1.658577	-18.065	3146.11
3.658577	-18.065	3169.28
5.658577	-18.065	3145.93
7.658577	-18.065	3165.05
9.658577	-18.065	3154.83
11.6586	-18.065	3156.47
13.6586	-18.065	3167.86
15.6586	-18.065	3161.55
17.6586	-18.065	3162.54
19.6586	-18.065	3163.5
21.6586	-18.065	3180.62
23.6586	-18.065	3168.27
-39.3414	-17.065	3155.15
-37.3414	-17.065	3163.28
-35.3414	-17.065	3199
-33.3414	-17.065	3205.54
-31.3414	-17.065	3169.46
-29.3414	-17.065	3177.93
-27.3414	-17.065	3167.39
-25.3414	-17.065	3151.03
-23.3414	-17.065	3168.77
-21.3414	-17.065	3164.82
-19.3414	-17.065	3154.9
-17.3414	-17.065	3162.78
-15.3414	-17.065	3152.49
-13.3414	-17.065	3152.59
-11.3414	-17.065	3159.4
-9.341423	-17.065	3158.67
-7.341423	-17.065	3178.05
-5.341423	-17.065	3159.71
-3.341423	-17.065	3147.71
-1.341423	-17.065	3157.19
0.658577	-17.065	3179.07
2.658577	-17.065	3170.15
4.658577	-17.065	3171.8
6.658577	-17.065	3170.63
8.658577	-17.065	3160.86
10.6586	-17.065	3155.14
12.6586	-17.065	3164.23
14.6586	-17.065	3179.65
16.6586	-17.065	3162.58
18.6586	-17.065	3170.29
20.6586	-17.065	3153.58
22.6586	-17.065	3167.34
24.6586	-17.065	3161.57
-38.3414	-16.065	3161.55
-36.3414	-16.065	3172.27
-34.3414	-16.065	3170.31
-32.3414	-16.065	3152.2
-30.3414	-16.065	3153.76
-28.3414	-16.065	3166.8
-26.3414	-16.065	3160.68
-24.3414	-16.065	3170.35
-22.3414	-16.065	3156.5
-20.3414	-16.065	3179.09
-18.3414	-16.065	3181.2
-16.3414	-16.065	3349.64
-14.3414	-16.065	3158.77
-12.3414	-16.065	3158.01
-10.3414	-16.065	3157.55
-8.341423	-16.065	3179.95
-6.341423	-16.065	3168.9
-4.341423	-16.065	3164.58
-2.341423	-16.065	3170.5
-0.341423	-16.065	3157.68
1.658577	-16.065	3157.98
3.658577	-16.065	3194.55
5.658577	-16.065	3154.44
7.658577	-16.065	3149.06
9.658577	-16.065	3151.95
11.6586	-16.065	3155.54
13.6586	-16.065	3166.63
15.6586	-16.065	3165.37
17.6586	-16.065	3162.79
19.6586	-16.065	3165.58
21.6586	-16.065	3175.43
23.6586	-16.065	3156.54
-39.3414	-15.065	3167.67
-37.3414	-15.065	3145.42
-35.3414	-15.065	3350
-33.3414	-15.065	3350
-31.3414	-15.065	3146.84
-29.3414	-15.065	3163.73
-27.3414	-15.065	3166.55
-25.3414	-15.065	3164.7
-23.3414	-15.065	3154.39
-21.3414	-15.065	3165.97
-19.3414	-15.065	3204.97
-17.3414	-15.065	3173.3
-15.3414	-15.065	3154.69
-13.3414	-15.065	3159.54
-11.3414	-15.065	3141.95
-9.341423	-15.065	3172.94
-7.341423	-15.065	3163.45
-5.341423	-15.065	3171.3
-3.341423	-15.065	3177.84
-1.341423	-15.065	3162.96
0.658577	-15.065	3162.39
2.658577	-15.065	3151.69
4.658577	-15.065	3158.21
6.658577	-15.065	3160.55
8.658577	-15.065	3153.49
10.6586	-15.065	3160.64
12.6586	-15.065	3183.94
14.6586	-15.065	3180.06
16.6586	-15.065	3176.44
18.6586	-15.065	3158.43
20.6586	-15.065	3180.88
22.6586	-15.065	3165.43
24.6586	-15.065	3167.81
-38.3414	-14.065	3151.99
-36.3414	-14.065	3155.68
-34.3414	-14.065	3163.01
-32.3414	-14.065	3346.57
-30.3414	-14.065	3151.25
-28.3414	-14.065	3166.32
-26.3414	-14.065	3168.85
-24.3414	-14.065	3169.64
-22.3414	-14.065	3175.54
-20.3414	-14.065	3164.97
-18.3414	-14.065	3163.28
-16.3414	-14.065	3163.73
-14.3414	-14.065	3161.24
-12.3414	-14.065	3162.61
-10.3414	-14.065	3174.67
-8.341423	-14.065	3178.12
-6.341423	-14.065	3175.53
-4.341423	-14.065	3173.37
-2.341423	-14.065	3145.55
-0.341423	-14.065	3161.56
1.658577	-14.065	3175.24
3.658577	-14.065	3197.46
5.658577	-14.065	3169.54
7.658577	-14.065	3158.77
9.658577	-14.065	3159.01
11.6586	-14.065	3178.29
13.6586	-14.065	3167.54
15.6586	-14.065	3350
17.6586	-14.065	3211.53
19.6586	-14.065	3181.1
21.6586	-14.065	3161.46
23.6586	-14.065	3168.4
-39.3414	-13.065	3158.95
-37.3414	-13.065	3152.91
-35.3414	-13.065	3350
-33.3414	-13.065	3347.42
-31.3414	-13.065	3151.54
-29.3414	-13.065	3155.78
-27.3414	-13.065	3168.67
-25.3414	-13.065	3160.9
-23.3414	-13.065	3161.44
-21.3414	-13.065	3160.55
-19.3414	-13.065	3153.51
-17.3414	-13.065	3190.19
-15.3414	-13.065	3157.46
-13.3414	-13.065	3213.27
-11.3414	-13.065	3171.5
-9.341423	-13.065	3177.42
-7.341423	-13.065	3171.86
-5.341423	-13.065	3163.41
-3.341423	-13.065	3172.63
-1.341423	-13.065	3152.6
0.658577	-13.065	3164.42
2.658577	-13.065	3171.93
4.658577	-13.065	3189.41
6.658577	-13.065	3161.26
8.658577	-13.065	3159.96
10.6586	-13.065	3197.64
12.6586	-13.065	3194.37
14.6586	-13.065	3163.2
16.6586	-13.065	3166.1
18.6586	-13.065	3154.62
20.6586	-13.065	3156.15
22.6586	-13.065	3173.83
24.6586	-13.065	3166.97
-38.3414	-12.065	3100
-36.3414	-12.065	3349.54
-34.3414	-12.065	3158.13
-32.3414	-12.065	3149.36
-30.3414	-12.065	3156.1
-28.3414	-12.065	3155.62
-26.3414	-12.065	3159.14
-24.3414	-12.065	3158.61
-22.3414	-12.065	3164.37
-20.3414	-12.065	3167.79
-18.3414	-12.065	3185.73
-16.3414	-12.065	3195.11
-14.3414	-12.065	3131.71
-12.3414	-12.065	3168.01
-10.3414	-12.065	3172.76
-8.341423	-12.065	3181.32
-6.341423	-12.065	3159.89
-4.341423	-12.065	3177.66
-2.341423	-12.065	3153.63
-0.341423	-12.065	3180.07
1.658577	-12.065	3174.11
3.658577	-12.065	3205.91
5.658577	-12.065	3174.95
7.658577	-12.065	3158.71
9.658577	-12.065	3155.89
11.6586	-12.065	3100
13.6586	-12.065	3243.02
15.6586	-12.065	3167.09
17.6586	-12.065	3164.64
19.6586	-12.065	3165.61
21.6586	-12.065	3170.17
23.6586	-12.065	3153.47
-39.3414	-11.065	3350
-37.3414	-11.065	3154.81
-35.3414	-11.065	3159.56
-33.3414	-11.065	3158.16
-31.3414	-11.065	3154.63
-29.3414	-11.065	3152.99
-27.3414	-11.065	3162
-25.3414	-11.065	3156.38
-23.3414	-11.065	3156.56
-21.3414	-11.065	3166.81
-19.3414	-11.065	3166.66
-17.3414	-11.065	3174.27
-15.3414	-11.065	3174.84
-13.3414	-11.065	3181.53
-11.3414	-11.065	3148.05
-9.341423	-11.065	3167.55
-7.341423	-11.065	3157.67
-5.341423	-11.065	3166.33
-3.341423	-11.065	3178.31
-1.341423	-11.065	3156.99
0.658577	-11.065	3155.18
2.658577	-11.065	3156.64
4.658577	-11.065	3175.48
6.658577	-11.065	3173.66
8.658577	-11.065	3167.96
10.6586	-11.065	3350
12.6586	-11.065	3166.46
14.6586	-11.065	3174.07
16.6586	-11.065	3150.87
18.6586	-11.065	3160.73
20.6586	-11.065	3196.97
22.6586	-11.065	3196.4
24.6586	-11.065	3159.95
-38.3414	-10.065	3157.47
-36.3414	-10.065	3161.51
-34.3414	-10.065	3159.17
-32.3414	-10.065	3350
-30.3414	-10.065	3228.98
-28.3414	-10.065	3277.1
-26.3414	-10.065	3160.64
-24.3414	-10.065	3173.88
-22.3414	-10.065	3187.04
-20.3414	-10.065	3164.31
-18.3414	-10.065	3165.06
-16.3414	-10.065	3160.22
-14.3414	-10.065	3155.63
-12.3414	-10.065	3162.18
-10.3414	-10.065	3156.24
-8.341423	-10.065	3175
-6.341423	-10.065	3233.35
-4.341423	-10.065	3177.97
-2.341423	-10.065	3190.77
-0.341423	-10.065	3168.68
1.658577	-10.065	3158.07
3.658577	-10.065	3188.25
5.658577	-10.065	3168.28
7.658577	-10.065	3165.7
9.658577	-10.065	3315.65
11.6586	-10.065	3117.44
13.6586	-10.065	3183.09
15.6586	-10.065	3171.5
17.6586	-10.065	3163.61
19.6586	-10.065	3181.87
21.6586	-10.065	3188.69
23.6586	-10.065	3171.26
-39.3414	-9.065000	3279.34
-37.3414	-9.065000	3159.84
-35.3414	-9.065000	3150.87
-33.3414	-9.065000	3349.45
-31.3414	-9.065000	3152.11
-29.3414	-9.065000	3161.16
-27.3414	-9.065000	3160.64
-25.3414	-9.065000	3146.89
-23.3414	-9.065000	3178.98
-21.3414	-9.065000	3243.89
-19.3414	-9.065000	3172.04
-17.3414	-9.065000	3165.4
-15.3414	-9.065000	3164.07
-13.3414	-9.065000	3160.86
-11.3414	-9.065000	3164.1
-9.341423	-9.065000	3169.66
-7.341423	-9.065000	3184.53
-5.341423	-9.065000	3160.66
-3.341423	-9.065000	3190.79
-1.341423	-9.065000	3173.71
0.658577	-9.065000	3165.07
2.658577	-9.065000	3243.53
4.658577	-9.065000	3167.61
6.658577	-9.065000	3162.51
8.658577	-9.065000	3147.59
10.6586	-9.065000	3225.09
12.6586	-9.065000	3168.24
14.6586	-9.065000	3175.43
16.6586	-9.065000	3174.76
18.6586	-9.065000	3180.54
20.6586	-9.065000	3100
22.6586	-9.065000	3157.61
24.6586	-9.065000	3162.72
-38.3414	-8.065000	3156.77
-36.3414	-8.065000	3350
-34.3414	-8.065000	3151.77
-32.3414	-8.065000	3100
-30.3414	-8.065000	3159.41
-28.3414	-8.065000	3155.58
-26.3414	-8.065000	3170.77
-24.3414	-8.065000	3158.08
-22.3414	-8.065000	3206.31
-20.3414	-8.065000	3167.77
-18.3414	-8.065000	3176.22
-16.3414	-8.065000	3162.92
-14.3414	-8.065000	3152.89
-12.3414	-8.065000	3158
-10.3414	-8.065000	3100
-8.341423	-8.065000	3100.04
-6.341423	-8.065000	3219.38
-4.341423	-8.065000	3145.19
-2.341423	-8.065000	3160.93
-0.341423	-8.065000	3161.02
1.658577	-8.065000	3180.05
3.658577	-8.065000	3175.87
5.658577	-8.065000	3164.89
7.658577	-8.065000	3164.09
9.658577	-8.065000	3189.42
11.6586	-8.065000	3350
13.6586	-8.065000	3169.24
15.6586	-8.065000	3176.97
17.6586	-8.065000	3177.61
19.6586	-8.065000	3188.91
21.6586	-8.065000	3183.63
23.6586	-8.065000	3166.4
-39.3414	-7.065000	3152.31
-37.3414	-7.065000	3159.66
-35.3414	-7.065000	3164.06
-33.3414	-7.065000	3152.26
-31.3414	-7.065000	3160.51
-29.3414	-7.065000	3156.24
-27.3414	-7.065000	3147.37
-25.3414	-7.065000	3164.16
-23.3414	-7.065000	3169.32
-21.3414	-7.065000	3183.57
-19.3414	-7.065000	3160.93
-17.3414	-7.065000	3162.08
-15.3414	-7.065000	3153.19
-13.3414	-7.065000	3156.47
-11.3414	-7.065000	3168.44
-9.341423	-7.065000	3159.79
-7.341423	-7.065000	3173.14
-5.341423	-7.065000	3304.99
-3.341423	-7.065000	3169.44
-1.341423	-7.065000	3179.76
0.658577	-7.065000	3321.94
2.658577	-7.065000	3168.21
4.658577	-7.065000	3168.15
6.658577	-7.065000	3172.1
8.658577	-7.065000	3131.31
10.6586	-7.065000	3163.11
12.6586	-7.065000	3172.56
14.6586	-7.065000	3166.31
16.6586	-7.065000	3172.1
18.6586	-7.065000	3188
20.6586	-7.065000	3169.45
22.6586	-7.065000	3163.32
24.6586	-7.065000	3159.11
-38.3414	-6.065000	3159.68
-36.3414	-6.065000	3159.5
-34.3414	-6.065000	3164.53
-32.3414	-6.065000	3159.13
-30.3414	-6.065000	3160.28
-28.3414	-6.065000	3167.76
-26.3414	-6.065000	3161.51
-24.3414	-6.065000	3350
-22.3414	-6.065000	3167.33
-20.3414	-6.065000	3172.79
-18.3414	-6.065000	3182.45
-16.3414	-6.065000	3165.1
-14.3414	-6.065000	3154
-12.3414	-6.065000	3100.26
-10.3414	-6.065000	3163.33
-8.341423	-6.065000	3166.69
-6.341423	-6.065000	3160.68
-4.341423	-6.065000	3181.27
-2.341423	-6.065000	3168.48
-0.341423	-6.065000	3100
1.658577	-6.065000	3100
3.658577	-6.065000	3164.95
5.658577	-6.065000	3168.21
7.658577	-6.065000	3163.38
9.658577	-6.065000	3180.45
11.6586	-6.065000	3170.57
13.6586	-6.065000	3163.74
15.6586	-6.065000	3156.92
17.6586	-6.065000	3167.37
19.6586	-6.065000	3180.83
21.6586	-6.065000	3163.39
23.6586	-6.065000	3173.47
-39.3414	-5.065000	3163.13
-37.3414	-5.065000	3274.89
-35.3414	-5.065000	3153.05
-33.3414	-5.065000	3350
-31.3414	-5.065000	3348.89
-29.3414	-5.065000	3164.29
-27.3414	-5.065000	3163.96
-25.3414	-5.065000	3165.52
-23.3414	-5.065000	3161.81
-21.3414	-5.065000	3161.31
-19.3414	-5.065000	3149
-17.3414	-5.065000	3168.41
-15.3414	-5.065000	3160.26
-13.3414	-5.065000	3160.19
-11.3414	-5.065000	3349.97
-9.341423	-5.065000	3160.5
-7.341423	-5.065000	3157.88
-5.341423	-5.065000	3156.58
-3.341423	-5.065000	3350
-1.341423	-5.065000	3162.36
0.658577	-5.065000	3168.11
2.658577	-5.065000	3167.8
4.658577	-5.065000	3178.75
6.658577	-5.065000	3170.69
8.658577	-5.065000	3184.17
10.6586	-5.065000	3167.58
12.6586	-5.065000	3159.13
14.6586	-5.065000	3170.8
16.6586	-5.065000	3164.64
18.6586	-5.065000	3175.1
20.6586	-5.065000	3165.23
22.6586	-5.065000	3164.51
24.6586	-5.065000	3180.29
-38.3414	-4.065000	3156.98
-36.3414	-4.065000	3158.88
-34.3414	-4.065000	3292.01
-32.3414	-4.065000	3350
-30.3414	-4.065000	3163.63
-28.3414	-4.065000	3149.58
-26.3414	-4.065000	3159.45
-24.3414	-4.065000	3170.03
-22.3414	-4.065000	3164.06
-20.3414	-4.065000	3165.46
-18.3414	-4.065000	3156.22
-16.3414	-4.065000	3167.4
-14.3414	-4.065000	3156.08
-12.3414	-4.065000	3158.23
-10.3414	-4.065000	3171.97
-8.341423	-4.065000	3100.08
-6.341423	-4.065000	3157.43
-4.341423	-4.065000	3178.02
-2.341423	-4.065000	3350
-0.341423	-4.065000	3150.33
1.658577	-4.065000	3163.16
3.658577	-4.065000	3177.42
5.658577	-4.065000	3177.46
7.658577	-4.065000	3164.22
9.658577	-4.065000	3165.73
11.6586	-4.065000	3176.44
13.6586	-4.065000	3162.98
15.6586	-4.065000	3160.41
17.6586	-4.065000	3175.31
19.6586	-4.065000	3171.03
21.6586	-4.065000	3167.13
23.6586	-4.065000	3173.53
-39.3414	-3.065000	3349.68
-37.3414	-3.065000	3156.67
-35.3414	-3.065000	3155.72
-33.3414	-3.065000	3166.05
-31.3414	-3.065000	3167.64
-29.3414	-3.065000	3214.37
-27.3414	-3.065000	3171.64
-25.3414	-3.065000	3141.02
-23.3414	-3.065000	3173.58
-21.3414	-3.065000	3157.86
-19.3414	-3.065000	3165.16
-17.3414	-3.065000	3165.88
-15.3414	-3.065000	3157.74
-13.3414	-3.065000	3153.2
-11.3414	-3.065000	3151.91
-9.341423	-3.065000	3165.03
-7.341423	-3.065000	3167.69
-5.341423	-3.065000	3174.94
-3.341423	-3.065000	3167
-1.341423	-3.065000	3350
0.658577	-3.065000	3164.7
2.658577	-3.065000	3102.73
4.658577	-3.065000	3161.11
6.658577	-3.065000	3161.42
8.658577	-3.065000	3160.2
10.6586	-3.065000	3164.56
12.6586	-3.065000	3348.25
14.6586	-3.065000	3155.72
16.6586	-3.065000	3158.27
18.6586	-3.065000	3172.34
20.6586	-3.065000	3162.32
22.6586	-3.065000	3140.72
24.6586	-3.065000	3169.73
-38.3414	-2.065000	3167.22
-36.3414	-2.065000	3148.24
-34.3414	-2.065000	3150.71
-32.3414	-2.065000	3191.64
-30.3414	-2.065000	3157.89
-28.3414	-2.065000	3339.29
-26.3414	-2.065000	3163
-24.3414	-2.065000	3167.32
-22.3414	-2.065000	3164.23
-20.3414	-2.065000	3172.59
-18.3414	-2.065000	3189.35
-16.3414	-2.065000	3159.56
-14.3414	-2.065000	3155.54
-12.3414	-2.065000	3158.68
-10.3414	-2.065000	3157.27
-8.341423	-2.065000	3163.91
-6.341423	-2.065000	3171.01
-4.341423	-2.065000	3168.99
-2.341423	-2.065000	3163.84
-0.341423	-2.065000	3348.61
1.658577	-2.065000	3167.3
3.658577	-2.065000	3178.45
5.658577	-2.065000	3160.53
7.658577	-2.065000	3170.28
9.658577	-2.065000	3165.98
11.6586	-2.065000	3166.41
13.6586	-2.065000	3350
15.6586	-2.065000	3164.9
17.6586	-2.065000	3164.37
19.6586	-2.065000	3177.98
21.6586	-2.065000	3262.51
23.6586	-2.065000	3176.76
-39.3414	-1.065000	3248.51
-37.3414	-1.065000	3172.32
-35.3414	-1.065000	3139.28
-33.3414	-1.065000	3167.07
-31.3414	-1.065000	3164.26
-29.3414	-1.065000	3174.39
-27.3414	-1.065000	3226.25
-25.3414	-1.065000	3158.94
-23.3414	-1.065000	3167.89
-21.3414	-1.065000	3168.87
-19.3414	-1.065000	3162.55
-17.3414	-1.065000	3154.17
-15.3414	-1.065000	3155.64
-13.3414	-1.065000	3160.9
-11.3414	-1.065000	3163.47
-9.341423	-1.065000	3166.85
-7.341423	-1.065000	3162.17
-5.341423	-1.065000	3166.59
-3.341423	-1.065000	3178
-1.341423	-1.065000	3275.71
0.658577	-1.065000	3163.4
2.658577	-1.065000	3167.86
4.658577	-1.065000	3185.25
6.658577	-1.065000	3165.31
8.658577	-1.065000	3173.2
10.6586	-1.065000	3152.63
12.6586	-1.065000	3160.14
14.6586	-1.065000	3156.24
16.6586	-1.065000	3159.43
18.6586	-1.065000	3161.1
20.6586	-1.065000	3160.92
22.6586	-1.065000	3173.1
24.6586	-1.065000	3168.53
-38.3414	-0.065000	3226.63
-36.3414	-0.065000	3215.19
-34.3414	-0.065000	3175.1
-32.3414	-0.065000	3141.88
-30.3414	-0.065000	3100
-28.3414	-0.065000	3100
-26.3414	-0.065000	3178.58
-24.3414	-0.065000	3151.74
-22.3414	-0.065000	3174.14
-20.3414	-0.065000	3167.32
-18.3414	-0.065000	3168.5
-16.3414	-0.065000	3172.66
-14.3414	-0.065000	3155.28
-12.3414	-0.065000	3160.02
-10.3414	-0.065000	3154.94
-8.341423	-0.065000	3156.31
-6.341423	-0.065000	3159.84
-4.341423	-0.065000	3159.42
-2.341423	-0.065000	3162.38
-0.341423	-0.065000	3349.46
1.658577	-0.065000	3163.97
3.658577	-0.065000	3189.75
5.658577	-0.065000	3164.23
7.658577	-0.065000	3167.9
9.658577	-0.065000	3156.79
11.6586	-0.065000	3160.45
13.6586	-0.065000	3318.55
15.6586	-0.065000	3159.72
17.6586	-0.065000	3147.31
19.6586	-0.065000	3173.1
21.6586	-0.065000	3158.72
23.6586	-0.065000	3177.11
-39.3414	0.935000	3240.33
-37.3414	0.935000	3244.86
-35.3414	0.935000	3146.92
-33.3414	0.935000	3171.45
-31.3414	0.935000	3165.82
-29.3414	0.935000	3225.5
-27.3414	0.935000	3205.96
-25.3414	0.935000	3250.94
-23.3414	0.935000	3160.97
-21.3414	0.935000	3169.79
-19.3414	0.935000	3173.17
-17.3414	0.935000	3166.82
-15.3414	0.935000	3156.5
-13.3414	0.935000	3156.92
-11.3414	0.935000	3350
-9.341423	0.935000	3158.56
-7.341423	0.935000	3159.84
-5.341423	0.935000	3337.18
-3.341423	0.935000	3171.71
-1.341423	0.935000	3159.19
0.658577	0.935000	3156.69
2.658577	0.935000	3153.35
4.658577	0.935000	3175.77
6.658577	0.935000	3343.11
8.658577	0.935000	3165.01
10.6586	0.935000	3157.58
12.6586	0.935000	3170.53
14.6586	0.935000	3163.96
16.6586	0.935000	3160.26
18.6586	0.935000	3168.62
20.6586	0.935000	3161.73
22.6586	0.935000	3155.64
24.6586	0.935000	3180.7
-38.3414	1.935000	3176.09
-36.3414	1.935000	3169.28
-34.3414	1.935000	3168.13
-32.3414	1.935000	3167.11
-30.3414	1.935000	3170.83
-28.3414	1.935000	3114.57
-26.3414	1.935000	3176.38
-24.3414	1.935000	3180.28
-22.3414	1.935000	3158.06
-20.3414	1.935000	3162.07
-18.3414	1.935000	3182.41
-16.3414	1.935000	3206.22
-14.3414	1.935000	3163.02
-12.3414	1.935000	3350
-10.3414	1.935000	3151.79
-8.341423	1.935000	3167.32
-6.341423	1.935000	3161.92
-4.341423	1.935000	3327.68
-2.341423	1.935000	3158.1
-0.341423	1.935000	3155.48
1.658577	1.935000	3157.46
3.658577	1.935000	3178.41
5.658577	1.935000	3161.77
7.658577	1.935000	3159.47
9.658577	1.935000	3350
11.6586	1.935000	3157.48
13.6586	1.935000	3100.03
15.6586	1.935000	3165.91
17.6586	1.935000	3165.79
19.6586	1.935000	3155
21.6586	1.935000	3153.69
23.6586	1.935000	3166.82
-39.3414	2.935000	3100
-37.3414	2.935000	3168.52
-35.3414	2.935000	3164.51
-33.3414	2.935000	3164.56
-31.3414	2.935000	3167.35
-29.3414	2.935000	3165.48
-27.3414	2.935000	3159.23
-25.3414	2.935000	3165.05
-23.3414	2.935000	3171.18
-21.3414	2.935000	3156.88
-19.3414	2.935000	3156.82
-17.3414	2.935000	3100
-15.3414	2.935000	3239.35
-13.3414	2.935000	3164.05
-11.3414	2.935000	3163.38
-9.341423	2.935000	3168.98
-7.341423	2.935000	3152.37
-5.341423	2.935000	3349.32
-3.341423	2.935000	3159.06
-1.341423	2.935000	3166.34
0.658577	2.935000	3168.17
2.658577	2.935000	3180.76
4.658577	2.935000	3165.22
6.658577	2.935000	3174.57
8.658577	2.935000	3160.15
10.6586	2.935000	3349.31
12.6586	2.935000	3161.44
14.6586	2.935000	3163.01
16.6586	2.935000	3167.15
18.6586	2.935000	3140.84
20.6586	2.935000	3144.4
22.6586	2.935000	3163.85
24.6586	2.935000	3140.41
-38.3414	3.935000	3165.34
-36.3414	3.935000	3167.44
-34.3414	3.935000	3152.75
-32.3414	3.935000	3166.39
-30.3414	3.935000	3158.83
-28.3414	3.935000	3160.54
-26.3414	3.935000	3158
-24.3414	3.935000	3160.68
-22.3414	3.935000	3161.19
-20.3414	3.935000	3162.8
-18.3414	3.935000	3147.98
-16.3414	3.935000	3104.03
-14.3414	3.935000	3239.01
-12.3414	3.935000	3166.79
-10.3414	3.935000	3163.63
-8.341423	3.935000	3165.73
-6.341423	3.935000	3146.87
-4.341423	3.935000	3169.19
-2.341423	3.935000	3154.27
-0.341423	3.935000	3303.53
1.658577	3.935000	3164.09
3.658577	3.935000	3162.58
5.658577	3.935000	3166.89
7.658577	3.935000	3162.13
9.658577	3.935000	3162.16
11.6586	3.935000	3163.08
13.6586	3.935000	3152.02
15.6586	3.935000	3162.37
17.6586	3.935000	3171.89
19.6586	3.935000	3349.37
21.6586	3.935000	3164.54
23.6586	3.935000	3157.19
-39.3414	4.935000	3349.85
-37.3414	4.935000	3320.69
-35.3414	4.935000	3165.34
-33.3414	4.935000	3158.28
-31.3414	4.935000	3164.29
-29.3414	4.935000	3170.28
-27.3414	4.935000	3168.56
-25.3414	4.935000	3162.72
-23.3414	4.935000	3162
-21.3414	4.935000	3166.32
-19.3414	4.935000	3152.97
-17.3414	4.935000	3157.71
-15.3414	4.935000	3154.09
-13.3414	4.935000	3175.69
-11.3414	4.935000	3155.94
-9.341423	4.935000	3164.16
-7.341423	4.935000	3158.92
-5.341423	4.935000	3148.72
-3.341423	4.935000	3350
-1.341423	4.935000	3160.18
0.658577	4.935000	3348.62
2.658577	4.935000	3161.23
4.658577	4.935000	3168.1
6.658577	4.935000	3350
8.658577	4.935000	3162.76
10.6586	4.935000	3155.04
12.6586	4.935000	3158.65
14.6586	4.935000	3169.43
16.6586	4.935000	3166.88
18.6586	4.935000	3343.8
20.6586	4.935000	3157.42
22.6586	4.935000	3350
24.6586	4.935000	3166.78
-38.3414	5.935000	3150.07
-36.3414	5.935000	3155.92
-34.3414	5.935000	3143.66
-32.3414	5.935000	3154.6
-30.3414	5.935000	3179.09
-28.3414	5.935000	3163.3
-26.3414	5.935000	3162.86
-24.3414	5.935000	3158.49
-22.3414	5.935000	3175.66
-20.3414	5.935000	3153.24
-18.3414	5.935000	3155.45
-16.3414	5.935000	3149.14
-14.3414	5.935000	3162.2
-12.3414	5.935000	3169.71
-10.3414	5.935000	3167.27
-8.341423	5.935000	3167.79
-6.341423	5.935000	3155.96
-4.341423	5.935000	3111.04
-2.341423	5.935000	3152.89
-0.341423	5.935000	3161.06
1.658577	5.935000	3346.61
3.658577	5.935000	3177.48
5.658577	5.935000	3170.31
7.658577	5.935000	3159.65
9.658577	5.935000	3163.14
11.6586	5.935000	3161.31
13.6586	5.935000	3168.24
15.6586	5.935000	3268.95
17.6586	5.935000	3171.78
19.6586	5.935000	3162.46
21.6586	5.935000	3161.27
23.6586	5.935000	3157.28
-39.3414	6.935000	3161.17
-37.3414	6.935000	3151.54
-35.3414	6.935000	3153.13
-33.3414	6.935000	3146.4
-31.3414	6.935000	3158.66
-29.3414	6.935000	3152.77
-27.3414	6.935000	3158.47
-25.3414	6.935000	3161.36
-23.3414	6.935000	3163.3
-21.3414	6.935000	3163.53
-19.3414	6.935000	3350
-17.3414	6.935000	3161.53
-15.3414	6.935000	3156.83
-13.3414	6.935000	3162.9
-11.3414	6.935000	3169.01
-9.341423	6.935000	3163.86
-7.341423	6.935000	3161.07
-5.341423	6.935000	3164.72
-3.341423	6.935000	3158.49
-1.341423	6.935000	3277.71
0.658577	6.935000	3347.9
2.658577	6.935000	3165.12
4.658577	6.935000	3163.78
6.658577	6.935000	3166.52
8.658577	6.935000	3167.38
10.6586	6.935000	3316.5
12.6586	6.935000	3160.68
14.6586	6.935000	3170
16.6586	6.935000	3165.46
18.6586	6.935000	3163.09
20.6586	6.935000	3163.23
22.6586	6.935000	3161.91
24.6586	6.935000	3157.62
-38.3414	7.935000	3157.09
-36.3414	7.935000	3161.57
-34.3414	7.935000	3151.93
-32.3414	7.935000	3160.64
-30.3414	7.935000	3158.42
-28.3414	7.935000	3176.01
-26.3414	7.935000	3165.49
-24.3414	7.935000	3177.78
-22.3414	7.935000	3167.25
-20.3414	7.935000	3163.14
-18.3414	7.935000	3162.86
-16.3414	7.935000	3164.32
-14.3414	7.935000	3156.62
-12.3414	7.935000	3158.49
-10.3414	7.935000	3177.56
-8.341423	7.935000	3178.42
-6.341423	7.935000	3164.35
-4.341423	7.935000	3166.84
-2.341423	7.935000	3350
-0.341423	7.935000	3150.54
1.658577	7.935000	3166.12
3.658577	7.935000	3166.44
5.658577	7.935000	3186.13
7.658577	7.935000	3176.93
9.658577	7.935000	3162.58
11.6586	7.935000	3167.16
13.6586	7.935000	3156.25
15.6586	7.935000	3164.14
17.6586	7.935000	3156.59
19.6586	7.935000	3173.25
21.6586	7.935000	3100
23.6586	7.935000	3160.39
-39.3414	8.935000	3350
-37.3414	8.935000	3164.25
-35.3414	8.935000	3160.3
-33.3414	8.935000	3162.03
-31.3414	8.935000	3154.29
-29.3414	8.935000	3161.6
-27.3414	8.935000	3165.53
-25.3414	8.935000	3165.8
-23.3414	8.935000	3170.48
-21.3414	8.935000	3165.82
-19.3414	8.935000	3172.36
-17.3414	8.935000	3157.27
-15.3414	8.935000	3102.6
-13.3414	8.935000	3155.29
-11.3414	8.935000	3164.65
-9.341423	8.935000	3183.64
-7.341423	8.935000	3175.14
-5.341423	8.935000	3154.1
-3.341423	8.935000	3166.88
-1.341423	8.935000	3341.77
0.658577	8.935000	3338.06
2.658577	8.935000	3153.58
4.658577	8.935000	3167.98
6.658577	8.935000	3183.21
8.658577	8.935000	3190.59
10.6586	8.935000	3173.19
12.6586	8.935000	3169.06
14.6586	8.935000	3168.79
16.6586	8.935000	3148.19
18.6586	8.935000	3212.02
20.6586	8.935000	3114.58
22.6586	8.935000	3171.81
24.6586	8.935000	3164.4
-38.3414	9.935000	3150.06
-36.3414	9.935000	3149.61
-34.3414	9.935000	3350
-32.3414	9.935000	3350
-30.3414	9.935000	3160.77
-28.3414	9.935000	3172.64
-26.3414	9.935000	3172.91
-24.3414	9.935000	3160.85
-22.3414	9.935000	3170.36
-20.3414	9.935000	3174.23
-18.3414	9.935000	3169.22
-16.3414	9.935000	3101.95
-14.3414	9.935000	3162.06
-12.3414	9.935000	3159.95
-10.3414	9.935000	3184.95
-8.341423	9.935000	3173.47
-6.341423	9.935000	3162.78
-4.341423	9.935000	3155.61
-2.341423	9.935000	3161.42
-0.341423	9.935000	3162.64
1.658577	9.935000	3165.75
3.658577	9.935000	3157.06
5.658577	9.935000	3170.73
7.658577	9.935000	3172.99
9.658577	9.935000	3176.83
11.6586	9.935000	3173.18
13.6586	9.935000	3215.16
15.6586	9.935000	3100
17.6586	9.935000	3320.06
19.6586	9.935000	3350
21.6586	9.935000	3163.65
23.6586	9.935000	3159.69
-39.3414	10.935	3146.55
-37.3414	10.935	3144.66
-35.3414	10.935	3157.73
-33.3414	10.935	3161
-31.3414	10.935	3156.7
-29.3414	10.935	3309.97
-27.3414	10.935	3155.49
-25.3414	10.935	3187.94
-23.3414	10.935	3164.33
-21.3414	10.935	3169.88
-19.3414	10.935	3161.59
-17.3414	10.935	3172.53
-15.3414	10.935	3161.97
-13.3414	10.935	3160.9
-11.3414	10.935	3154.53
-9.341423	10.935	3174.79
-7.341423	10.935	3171.09
-5.341423	10.935	3341.96
-3.341423	10.935	3166.75
-1.341423	10.935	3163.3
0.658577	10.935	3158.95
2.658577	10.935	3162.62
4.658577	10.935	3166.38
6.658577	10.935	3193.35
8.658577	10.935	3138.89
10.6586	10.935	3147.41
12.6586	10.935	3171.58
14.6586	10.935	3347.3
16.6586	10.935	3350
18.6586	10.935	3100
20.6586	10.935	3161.19
22.6586	10.935	3157.5
24.6586	10.935	3158.05
-38.3414	11.935	3158.85
-36.3414	11.935	3162.18
-34.3414	11.935	3146.62
-32.3414	11.935	3155.53
-30.3414	11.935	3158.31
-28.3414	11.935	3165.42
-26.3414	11.935	3171.11
-24.3414	11.935	3308.18
-22.3414	11.935	3162.53
-20.3414	11.935	3166.66
-18.3414	11.935	3164.15
-16.3414	11.935	3169.44
-14.3414	11.935	3165.1
-12.3414	11.935	3174.75
-10.3414	11.935	3165.18
-8.341423	11.935	3175.45
-6.341423	11.935	3173.44
-4.341423	11.935	3154.31
-2.341423	11.935	3172.29
-0.341423	11.935	3166.43
1.658577	11.935	3165.07
3.658577	11.935	3148.79
5.658577	11.935	3163.84
7.658577	11.935	3350
9.658577	11.935	3168.25
11.6586	11.935	3163.04
13.6586	11.935	3163.43
15.6586	11.935	3336.51
17.6586	11.935	3350
19.6586	11.935	3100
21.6586	11.935	3166.13
23.6586	11.935	3167.77
-39.3414	12.935	3153.99
-37.3414	12.935	3151.24
-35.3414	12.935	3158.76
-33.3414	12.935	3161.2
-31.3414	12.935	3156
-29.3414	12.935	3167.83
-27.3414	12.935	3158.39
-25.3414	12.935	3100
-23.3414	12.935	3163.08
-21.3414	12.935	3158.59
-19.3414	12.935	3158.99
-17.3414	12.935	3186.65
-15.3414	12.935	3161.33
-13.3414	12.935	3158.78
-11.3414	12.935	3166.86
-9.341423	12.935	3162.23
-7.341423	12.935	3165.2
-5.341423	12.935	3167.19
-3.341423	12.935	3159.87
-1.341423	12.935	3161.99
0.658577	12.935	3167.26
2.658577	12.935	3170.34
4.658577	12.935	3208.35
6.658577	12.935	3152.38
8.658577	12.935	3143.9
10.6586	12.935	3158.12
12.6586	12.935	3149.85
14.6586	12.935	3100.3
16.6586	12.935	3350
18.6586	12.935	3350
20.6586	12.935	3243.33
22.6586	12.935	3162.35
24.6586	12.935	3181.01
-38.3414	13.935	3154.56
-36.3414	13.935	3158.91
-34.3414	13.935	3344.79
-32.3414	13.935	3158.08
-30.3414	13.935	3349.85
-28.3414	13.935	3171.77
-26.3414	13.935	3177.3
-24.3414	13.935	3163.28
-22.3414	13.935	3162.42
-20.3414	13.935	3101.18
-18.3414	13.935	3167.4
-16.3414	13.935	3162.02
-14.3414	13.935	3162.68
-12.3414	13.935	3175.79
-10.3414	13.935	3152.69
-8.341423	13.935	3191.29
-6.341423	13.935	3169.53
-4.341423	13.935	3156.66
-2.341423	13.935	3166.86
-0.341423	13.935	3160.42
1.658577	13.935	3173.68
3.658577	13.935	3148.69
5.658577	13.935	3229.52
7.658577	13.935	3163.3
9.658577	13.935	3169.22
11.6586	13.935	3167.85
13.6586	13.935	3158.46
15.6586	13.935	3350
17.6586	13.935	3214.03
19.6586	13.935	3350
21.6586	13.935	3333.49
23.6586	13.935	3350
-39.3414	14.935	3348.63
-37.3414	14.935	3157.76
-35.3414	14.935	3350
-33.3414	14.935	3153.8
-31.3414	14.935	3158.13
-29.3414	14.935	3157.01
-27.3414	14.935	3169.51
-25.3414	14.935	3162.23
-23.3414	14.935	3176.92
-21.3414	14.935	3161.09
-19.3414	14.935	3160.92
-17.3414	14.935	3153.15
-15.3414	14.935	3157.19
-13.3414	14.935	3171.39
-11.3414	14.935	3174.65
-9.341423	14.935	3198.94
-7.341423	14.935	3162.83
-5.341423	14.935	3169.3
-3.341423	14.935	3162.66
-1.341423	14.935	3166.17
0.658577	14.935	3157.02
2.658577	14.935	3158.43
4.658577	14.935	3204.7
6.658577	14.935	3199.28
8.658577	14.935	3156.17
10.6586	14.935	3165.05
12.6586	14.935	3172.22
14.6586	14.935	3100
16.6586	14.935	3350
18.6586	14.935	3350
20.6586	14.935	3100
22.6586	14.935	3350
24.6586	14.935	3350
-38.3414	15.935	3159.67
-36.3414	15.935	3160.47
-34.3414	15.935	3156.02
-32.3414	15.935	3154.66
-30.3414	15.935	3168.56
-28.3414	15.935	3162.2
-26.3414	15.935	3179.01
-24.3414	15.935	3173.11
-22.3414	15.935	3174.66
-20.3414	15.935	3151.57
-18.3414	15.935	3158.23
-16.3414	15.935	3164.4
-14.3414	15.935	3328.41
-12.3414	15.935	3349.18
-10.3414	15.935	3181.55
-8.341423	15.935	3218.41
-6.341423	15.935	3167.84
-4.341423	15.935	3149.3
-2.341423	15.935	3172.13
-0.341423	15.935	3166.37
1.658577	15.935	3170.1
3.658577	15.935	3173.88
5.658577	15.935	3350
7.658577	15.935	3350
9.658577	15.935	3162.57
11.6586	15.935	3171.4
13.6586	15.935	3137.89
15.6586	15.935	3350
17.6586	15.935	3350
19.6586	15.935	3350
21.6586	15.935	3342.44
23.6586	15.935	3263.19
24.6586	15.935	3350