File: data/derived_data/raman/20170920_Gr-NH2_for_Radisurf/20170920 Gr-NH for Radisurf map 2/2Dp FWHM.txt
#XList		#YList		#IList
-39.3414	-21.065	147.954
-37.3414	-21.065	218.191
-35.3414	-21.065	213.314
-33.3414	-21.065	136.47
-31.3414	-21.065	127.666
-29.3414	-21.065	156.739
-27.3414	-21.065	110.708
-25.3414	-21.065	117.211
-23.3414	-21.065	2141.4
-21.3414	-21.065	146.601
-19.3414	-21.065	2329.61
-17.3414	-21.065	182.362
-15.3414	-21.065	151.61
-13.3414	-21.065	143.108
-11.3414	-21.065	107.785
-9.341423	-21.065	142.047
-7.341423	-21.065	146.62
-5.341423	-21.065	132.808
-3.341423	-21.065	103.961
-1.341423	-21.065	129.005
0.658577	-21.065	140.273
2.658577	-21.065	131.826
4.658577	-21.065	149.7
6.658577	-21.065	2595.12
8.658577	-21.065	2595.12
10.6586	-21.065	234.488
12.6586	-21.065	126.791
14.6586	-21.065	118.87
16.6586	-21.065	164.765
18.6586	-21.065	135.364
20.6586	-21.065	163.028
22.6586	-21.065	297.056
24.6586	-21.065	2517.59
-38.3414	-20.065	155.864
-36.3414	-20.065	134.39
-34.3414	-20.065	114.72
-32.3414	-20.065	0.639823
-30.3414	-20.065	0.639823
-28.3414	-20.065	151.951
-26.3414	-20.065	111.732
-24.3414	-20.065	120.622
-22.3414	-20.065	134.351
-20.3414	-20.065	114.556
-18.3414	-20.065	134.52
-16.3414	-20.065	121.693
-14.3414	-20.065	128.267
-12.3414	-20.065	121.818
-10.3414	-20.065	8.684147
-8.341423	-20.065	130.161
-6.341423	-20.065	137.214
-4.341423	-20.065	96.3684
-2.341423	-20.065	121.015
-0.341423	-20.065	134.483
1.658577	-20.065	129.946
3.658577	-20.065	165.914
5.658577	-20.065	232.89
7.658577	-20.065	2595.12
9.658577	-20.065	132.32
11.6586	-20.065	161.245
13.6586	-20.065	137.568
15.6586	-20.065	156.802
17.6586	-20.065	125.963
19.6586	-20.065	125.24
21.6586	-20.065	106.294
23.6586	-20.065	2595.12
-39.3414	-19.065	157.11
-37.3414	-19.065	172.338
-35.3414	-19.065	165.606
-33.3414	-19.065	166.935
-31.3414	-19.065	137.576
-29.3414	-19.065	140.789
-27.3414	-19.065	116.262
-25.3414	-19.065	130.265
-23.3414	-19.065	122.618
-21.3414	-19.065	144.928
-19.3414	-19.065	137.685
-17.3414	-19.065	119.598
-15.3414	-19.065	120.461
-13.3414	-19.065	117.921
-11.3414	-19.065	112.672
-9.341423	-19.065	114.114
-7.341423	-19.065	119.714
-5.341423	-19.065	123.19
-3.341423	-19.065	126.308
-1.341423	-19.065	165.384
0.658577	-19.065	154.956
2.658577	-19.065	175.34
4.658577	-19.065	193.001
6.658577	-19.065	1377.46
8.658577	-19.065	145.041
10.6586	-19.065	187.658
12.6586	-19.065	152.33
14.6586	-19.065	115.564
16.6586	-19.065	119.043
18.6586	-19.065	147.448
20.6586	-19.065	106.885
22.6586	-19.065	34.2965
24.6586	-19.065	2595.12
-38.3414	-18.065	199.124
-36.3414	-18.065	178.531
-34.3414	-18.065	362.731
-32.3414	-18.065	127.448
-30.3414	-18.065	117.898
-28.3414	-18.065	126.122
-26.3414	-18.065	119.902
-24.3414	-18.065	124.358
-22.3414	-18.065	137.11
-20.3414	-18.065	127.097
-18.3414	-18.065	109.549
-16.3414	-18.065	145.832
-14.3414	-18.065	116.261
-12.3414	-18.065	130.568
-10.3414	-18.065	143.602
-8.341423	-18.065	148.619
-6.341423	-18.065	115.297
-4.341423	-18.065	153.163
-2.341423	-18.065	130.642
-0.341423	-18.065	145.695
1.658577	-18.065	217.103
3.658577	-18.065	162.839
5.658577	-18.065	149.683
7.658577	-18.065	127.497
9.658577	-18.065	136.151
11.6586	-18.065	137.55
13.6586	-18.065	118.037
15.6586	-18.065	128.936
17.6586	-18.065	147.808
19.6586	-18.065	144.418
21.6586	-18.065	71.8515
23.6586	-18.065	119.647
-39.3414	-17.065	141.811
-37.3414	-17.065	102.581
-35.3414	-17.065	93.3743
-33.3414	-17.065	92.8649
-31.3414	-17.065	148.608
-29.3414	-17.065	129.551
-27.3414	-17.065	148.927
-25.3414	-17.065	136.963
-23.3414	-17.065	133.668
-21.3414	-17.065	109.869
-19.3414	-17.065	128.154
-17.3414	-17.065	144.889
-15.3414	-17.065	126.525
-13.3414	-17.065	125.909
-11.3414	-17.065	102.732
-9.341423	-17.065	132.422
-7.341423	-17.065	74.8258
-5.341423	-17.065	115.707
-3.341423	-17.065	210.349
-1.341423	-17.065	134.47
0.658577	-17.065	128.307
2.658577	-17.065	168.139
4.658577	-17.065	112.917
6.658577	-17.065	129.731
8.658577	-17.065	142.709
10.6586	-17.065	177.178
12.6586	-17.065	125.926
14.6586	-17.065	135.74
16.6586	-17.065	101.722
18.6586	-17.065	222.46
20.6586	-17.065	130.418
22.6586	-17.065	113.425
24.6586	-17.065	114.474
-38.3414	-16.065	168.872
-36.3414	-16.065	135.007
-34.3414	-16.065	148.363
-32.3414	-16.065	128.816
-30.3414	-16.065	131.725
-28.3414	-16.065	154.573
-26.3414	-16.065	139.883
-24.3414	-16.065	116.017
-22.3414	-16.065	158.658
-20.3414	-16.065	51.0342
-18.3414	-16.065	15.3978
-16.3414	-16.065	0.639823
-14.3414	-16.065	113.076
-12.3414	-16.065	128.716
-10.3414	-16.065	168.211
-8.341423	-16.065	112.421
-6.341423	-16.065	112.331
-4.341423	-16.065	147.234
-2.341423	-16.065	173.084
-0.341423	-16.065	142.394
1.658577	-16.065	170.655
3.658577	-16.065	202.33
5.658577	-16.065	135.995
7.658577	-16.065	139.979
9.658577	-16.065	152.712
11.6586	-16.065	132.207
13.6586	-16.065	112.815
15.6586	-16.065	119.941
17.6586	-16.065	167.258
19.6586	-16.065	120.782
21.6586	-16.065	128.269
23.6586	-16.065	130.302
-39.3414	-15.065	199.673
-37.3414	-15.065	162.215
-35.3414	-15.065	0.639823
-33.3414	-15.065	0.639823
-31.3414	-15.065	130.621
-29.3414	-15.065	132.651
-27.3414	-15.065	148.88
-25.3414	-15.065	148.391
-23.3414	-15.065	146.723
-21.3414	-15.065	125.257
-19.3414	-15.065	171.606
-17.3414	-15.065	107.17
-15.3414	-15.065	124.047
-13.3414	-15.065	119.897
-11.3414	-15.065	139.285
-9.341423	-15.065	158.145
-7.341423	-15.065	163.666
-5.341423	-15.065	133.315
-3.341423	-15.065	129.837
-1.341423	-15.065	196.721
0.658577	-15.065	134.682
2.658577	-15.065	157.035
4.658577	-15.065	132.113
6.658577	-15.065	140.343
8.658577	-15.065	135.746
10.6586	-15.065	116.403
12.6586	-15.065	83.5291
14.6586	-15.065	152.59
16.6586	-15.065	100.859
18.6586	-15.065	168.089
20.6586	-15.065	97.3522
22.6586	-15.065	131.596
24.6586	-15.065	112.411
-38.3414	-14.065	160.428
-36.3414	-14.065	123.092
-34.3414	-14.065	122.474
-32.3414	-14.065	0.639823
-30.3414	-14.065	134.808
-28.3414	-14.065	159.94
-26.3414	-14.065	126.168
-24.3414	-14.065	127.115
-22.3414	-14.065	105.428
-20.3414	-14.065	132.686
-18.3414	-14.065	114.506
-16.3414	-14.065	112.057
-14.3414	-14.065	109.924
-12.3414	-14.065	114.285
-10.3414	-14.065	130.444
-8.341423	-14.065	170.847
-6.341423	-14.065	136.014
-4.341423	-14.065	183.526
-2.341423	-14.065	164.384
-0.341423	-14.065	204.735
1.658577	-14.065	113.261
3.658577	-14.065	158.297
5.658577	-14.065	154.564
7.658577	-14.065	129.396
9.658577	-14.065	135.467
11.6586	-14.065	50.4606
13.6586	-14.065	110.612
15.6586	-14.065	1565.21
17.6586	-14.065	202.086
19.6586	-14.065	78.7551
21.6586	-14.065	120.835
23.6586	-14.065	135.676
-39.3414	-13.065	140.649
-37.3414	-13.065	130.263
-35.3414	-13.065	0.639823
-33.3414	-13.065	0.639823
-31.3414	-13.065	123.311
-29.3414	-13.065	149.009
-27.3414	-13.065	151.51
-25.3414	-13.065	123.082
-23.3414	-13.065	123.058
-21.3414	-13.065	132.913
-19.3414	-13.065	161.174
-17.3414	-13.065	125.274
-15.3414	-13.065	148.78
-13.3414	-13.065	18.2551
-11.3414	-13.065	161.748
-9.341423	-13.065	127.299
-7.341423	-13.065	156.616
-5.341423	-13.065	168.654
-3.341423	-13.065	199.723
-1.341423	-13.065	169.974
0.658577	-13.065	113.883
2.658577	-13.065	150.45
4.658577	-13.065	125.54
6.658577	-13.065	156.362
8.658577	-13.065	122.239
10.6586	-13.065	27.3676
12.6586	-13.065	53.5195
14.6586	-13.065	139.447
16.6586	-13.065	135.285
18.6586	-13.065	143.622
20.6586	-13.065	132.542
22.6586	-13.065	148.09
24.6586	-13.065	171.687
-38.3414	-12.065	4.073205
-36.3414	-12.065	0.639823
-34.3414	-12.065	125.617
-32.3414	-12.065	133.296
-30.3414	-12.065	132.473
-28.3414	-12.065	132.206
-26.3414	-12.065	122.642
-24.3414	-12.065	121.291
-22.3414	-12.065	126.302
-20.3414	-12.065	199.361
-18.3414	-12.065	150.62
-16.3414	-12.065	140.997
-14.3414	-12.065	149.399
-12.3414	-12.065	137.284
-10.3414	-12.065	168.23
-8.341423	-12.065	172.847
-6.341423	-12.065	134.196
-4.341423	-12.065	135.725
-2.341423	-12.065	154.085
-0.341423	-12.065	153.984
1.658577	-12.065	166.187
3.658577	-12.065	123.411
5.658577	-12.065	141.603
7.658577	-12.065	122.343
9.658577	-12.065	40.8142
11.6586	-12.065	629.608
13.6586	-12.065	26.0535
15.6586	-12.065	137.541
17.6586	-12.065	119.274
19.6586	-12.065	145.121
21.6586	-12.065	159.204
23.6586	-12.065	162.087
-39.3414	-11.065	0.639823
-37.3414	-11.065	127.497
-35.3414	-11.065	116.142
-33.3414	-11.065	125.275
-31.3414	-11.065	132.115
-29.3414	-11.065	128.903
-27.3414	-11.065	116.087
-25.3414	-11.065	120.088
-23.3414	-11.065	120.975
-21.3414	-11.065	139.91
-19.3414	-11.065	134.259
-17.3414	-11.065	210.734
-15.3414	-11.065	148.111
-13.3414	-11.065	68.1517
-11.3414	-11.065	175.423
-9.341423	-11.065	154.069
-7.341423	-11.065	148.719
-5.341423	-11.065	128.639
-3.341423	-11.065	121.525
-1.341423	-11.065	138.337
0.658577	-11.065	194.581
2.658577	-11.065	163.441
4.658577	-11.065	166.355
6.658577	-11.065	161.978
8.658577	-11.065	147.291
10.6586	-11.065	2384.21
12.6586	-11.065	125.698
14.6586	-11.065	117.964
16.6586	-11.065	152.432
18.6586	-11.065	145.535
20.6586	-11.065	132.194
22.6586	-11.065	146.709
24.6586	-11.065	177.027
-38.3414	-10.065	120.494
-36.3414	-10.065	142.971
-34.3414	-10.065	127.108
-32.3414	-10.065	0.639823
-30.3414	-10.065	1144.96
-28.3414	-10.065	0.639823
-26.3414	-10.065	121.099
-24.3414	-10.065	109.681
-22.3414	-10.065	39.0225
-20.3414	-10.065	95.5214
-18.3414	-10.065	150.121
-16.3414	-10.065	154.786
-14.3414	-10.065	133.79
-12.3414	-10.065	163.745
-10.3414	-10.065	130.009
-8.341423	-10.065	194.067
-6.341423	-10.065	85.9164
-4.341423	-10.065	152.125
-2.341423	-10.065	181.188
-0.341423	-10.065	124.056
1.658577	-10.065	140.276
3.658577	-10.065	110.005
5.658577	-10.065	137.925
7.658577	-10.065	105.64
9.658577	-10.065	60.6528
11.6586	-10.065	0.639823
13.6586	-10.065	143.773
15.6586	-10.065	118.339
17.6586	-10.065	189.345
19.6586	-10.065	174.351
21.6586	-10.065	164.298
23.6586	-10.065	168.137
-39.3414	-9.065000	0.639823
-37.3414	-9.065000	123.071
-35.3414	-9.065000	133.287
-33.3414	-9.065000	0.639823
-31.3414	-9.065000	134.319
-29.3414	-9.065000	107.372
-27.3414	-9.065000	118.198
-25.3414	-9.065000	166.036
-23.3414	-9.065000	16.9758
-21.3414	-9.065000	165.241
-19.3414	-9.065000	119.714
-17.3414	-9.065000	137.512
-15.3414	-9.065000	119.863
-13.3414	-9.065000	129.448
-11.3414	-9.065000	118.402
-9.341423	-9.065000	97.3245
-7.341423	-9.065000	94.8974
-5.341423	-9.065000	247.862
-3.341423	-9.065000	142.342
-1.341423	-9.065000	143.487
0.658577	-9.065000	141.211
2.658577	-9.065000	24.6454
4.658577	-9.065000	179.497
6.658577	-9.065000	112.018
8.658577	-9.065000	122.604
10.6586	-9.065000	2595.12
12.6586	-9.065000	145.091
14.6586	-9.065000	164.411
16.6586	-9.065000	185.041
18.6586	-9.065000	200.906
20.6586	-9.065000	467.656
22.6586	-9.065000	174.709
24.6586	-9.065000	99.0858
-38.3414	-8.065000	138.995
-36.3414	-8.065000	0.639823
-34.3414	-8.065000	143.77
-32.3414	-8.065000	1.510490
-30.3414	-8.065000	131.054
-28.3414	-8.065000	130.775
-26.3414	-8.065000	105.689
-24.3414	-8.065000	176.549
-22.3414	-8.065000	118.737
-20.3414	-8.065000	200.689
-18.3414	-8.065000	118.986
-16.3414	-8.065000	130.858
-14.3414	-8.065000	151.818
-12.3414	-8.065000	149.104
-10.3414	-8.065000	1.017910
-8.341423	-8.065000	1.769921
-6.341423	-8.065000	101.59
-4.341423	-8.065000	165.973
-2.341423	-8.065000	127.048
-0.341423	-8.065000	131.107
1.658577	-8.065000	56.1678
3.658577	-8.065000	126.373
5.658577	-8.065000	130.014
7.658577	-8.065000	121.59
9.658577	-8.065000	24.4937
11.6586	-8.065000	2595.12
13.6586	-8.065000	132.438
15.6586	-8.065000	110.117
17.6586	-8.065000	165.178
19.6586	-8.065000	182.077
21.6586	-8.065000	187.247
23.6586	-8.065000	132.511
-39.3414	-7.065000	152.798
-37.3414	-7.065000	125.319
-35.3414	-7.065000	123.703
-33.3414	-7.065000	128.663
-31.3414	-7.065000	147.273
-29.3414	-7.065000	145.863
-27.3414	-7.065000	124.93
-25.3414	-7.065000	131.093
-23.3414	-7.065000	140.18
-21.3414	-7.065000	138.171
-19.3414	-7.065000	106.078
-17.3414	-7.065000	123.434
-15.3414	-7.065000	126.209
-13.3414	-7.065000	135.519
-11.3414	-7.065000	136.021
-9.341423	-7.065000	143.187
-7.341423	-7.065000	92.7559
-5.341423	-7.065000	2012.57
-3.341423	-7.065000	117.122
-1.341423	-7.065000	35.1157
0.658577	-7.065000	1905.51
2.658577	-7.065000	118.992
4.658577	-7.065000	122.708
6.658577	-7.065000	97.6216
8.658577	-7.065000	0.639823
10.6586	-7.065000	106.1
12.6586	-7.065000	90.9132
14.6586	-7.065000	116.901
16.6586	-7.065000	129.192
18.6586	-7.065000	161.435
20.6586	-7.065000	148.939
22.6586	-7.065000	139.711
24.6586	-7.065000	151.722
-38.3414	-6.065000	120.046
-36.3414	-6.065000	128.463
-34.3414	-6.065000	115.496
-32.3414	-6.065000	138.354
-30.3414	-6.065000	122.25
-28.3414	-6.065000	91.4528
-26.3414	-6.065000	111.095
-24.3414	-6.065000	0.639823
-22.3414	-6.065000	112.195
-20.3414	-6.065000	125.862
-18.3414	-6.065000	48.025
-16.3414	-6.065000	120.82
-14.3414	-6.065000	132.254
-12.3414	-6.065000	1.355339
-10.3414	-6.065000	108.587
-8.341423	-6.065000	136.167
-6.341423	-6.065000	157.523
-4.341423	-6.065000	352.21
-2.341423	-6.065000	115.916
-0.341423	-6.065000	1298.75
1.658577	-6.065000	2595.12
3.658577	-6.065000	119.692
5.658577	-6.065000	118.541
7.658577	-6.065000	119.015
9.658577	-6.065000	29.0793
11.6586	-6.065000	142.002
13.6586	-6.065000	131.991
15.6586	-6.065000	124.863
17.6586	-6.065000	216.178
19.6586	-6.065000	138.85
21.6586	-6.065000	158.582
23.6586	-6.065000	142.093
-39.3414	-5.065000	108.519
-37.3414	-5.065000	0.639823
-35.3414	-5.065000	134.823
-33.3414	-5.065000	0.639823
-31.3414	-5.065000	0.639823
-29.3414	-5.065000	116.185
-27.3414	-5.065000	113.631
-25.3414	-5.065000	127.623
-23.3414	-5.065000	114.549
-21.3414	-5.065000	118.823
-19.3414	-5.065000	143.782
-17.3414	-5.065000	43.3232
-15.3414	-5.065000	140.076
-13.3414	-5.065000	134.378
-11.3414	-5.065000	1.388448
-9.341423	-5.065000	117.226
-7.341423	-5.065000	125.376
-5.341423	-5.065000	112.073
-3.341423	-5.065000	2595.12
-1.341423	-5.065000	65.734
0.658577	-5.065000	140.995
2.658577	-5.065000	12.3841
4.658577	-5.065000	97.6262
6.658577	-5.065000	125.254
8.658577	-5.065000	100.935
10.6586	-5.065000	125.098
12.6586	-5.065000	118.437
14.6586	-5.065000	119.446
16.6586	-5.065000	130.835
18.6586	-5.065000	161.154
20.6586	-5.065000	171.45
22.6586	-5.065000	139.82
24.6586	-5.065000	221.553
-38.3414	-4.065000	105.822
-36.3414	-4.065000	161.046
-34.3414	-4.065000	0.639823
-32.3414	-4.065000	0.639823
-30.3414	-4.065000	156.605
-28.3414	-4.065000	112.797
-26.3414	-4.065000	120.668
-24.3414	-4.065000	109.353
-22.3414	-4.065000	107.908
-20.3414	-4.065000	129.68
-18.3414	-4.065000	133.02
-16.3414	-4.065000	107.246
-14.3414	-4.065000	137.198
-12.3414	-4.065000	126.605
-10.3414	-4.065000	118.662
-8.341423	-4.065000	0.639823
-6.341423	-4.065000	128.311
-4.341423	-4.065000	178.232
-2.341423	-4.065000	0.639823
-0.341423	-4.065000	145.131
1.658577	-4.065000	79.6322
3.658577	-4.065000	98.6029
5.658577	-4.065000	107.001
7.658577	-4.065000	123.166
9.658577	-4.065000	105.498
11.6586	-4.065000	135.372
13.6586	-4.065000	109.539
15.6586	-4.065000	117.633
17.6586	-4.065000	106.535
19.6586	-4.065000	138.924
21.6586	-4.065000	113.738
23.6586	-4.065000	136.681
-39.3414	-3.065000	0.639823
-37.3414	-3.065000	145.269
-35.3414	-3.065000	124.537
-33.3414	-3.065000	112.745
-31.3414	-3.065000	113.335
-29.3414	-3.065000	35.4781
-27.3414	-3.065000	148.947
-25.3414	-3.065000	159.797
-23.3414	-3.065000	107.654
-21.3414	-3.065000	121.846
-19.3414	-3.065000	132.211
-17.3414	-3.065000	123.272
-15.3414	-3.065000	134.822
-13.3414	-3.065000	131.889
-11.3414	-3.065000	151.467
-9.341423	-3.065000	146.908
-7.341423	-3.065000	209.212
-5.341423	-3.065000	104.24
-3.341423	-3.065000	102.273
-1.341423	-3.065000	0.639823
0.658577	-3.065000	108.973
2.658577	-3.065000	173.65
4.658577	-3.065000	115.719
6.658577	-3.065000	132.834
8.658577	-3.065000	118.294
10.6586	-3.065000	117.006
12.6586	-3.065000	0.639823
14.6586	-3.065000	114.073
16.6586	-3.065000	130.816
18.6586	-3.065000	128.847
20.6586	-3.065000	164.184
22.6586	-3.065000	0.639823
24.6586	-3.065000	156.03
-38.3414	-2.065000	129.306
-36.3414	-2.065000	173.726
-34.3414	-2.065000	94.6073
-32.3414	-2.065000	29.9436
-30.3414	-2.065000	122.639
-28.3414	-2.065000	59.2149
-26.3414	-2.065000	115.564
-24.3414	-2.065000	124.43
-22.3414	-2.065000	114.211
-20.3414	-2.065000	116.593
-18.3414	-2.065000	152.422
-16.3414	-2.065000	132.869
-14.3414	-2.065000	115.06
-12.3414	-2.065000	157.745
-10.3414	-2.065000	123.428
-8.341423	-2.065000	156.149
-6.341423	-2.065000	146.853
-4.341423	-2.065000	155.424
-2.341423	-2.065000	121.105
-0.341423	-2.065000	0.639823
1.658577	-2.065000	107.86
3.658577	-2.065000	104.087
5.658577	-2.065000	130.258
7.658577	-2.065000	131.407
9.658577	-2.065000	115.524
11.6586	-2.065000	130.485
13.6586	-2.065000	0.639823
15.6586	-2.065000	125.277
17.6586	-2.065000	134.615
19.6586	-2.065000	133.798
21.6586	-2.065000	37.3636
23.6586	-2.065000	157.414
-39.3414	-1.065000	322.771
-37.3414	-1.065000	135.69
-35.3414	-1.065000	182.807
-33.3414	-1.065000	184.222
-31.3414	-1.065000	135.342
-29.3414	-1.065000	164.759
-27.3414	-1.065000	45.3435
-25.3414	-1.065000	126.269
-23.3414	-1.065000	109.454
-21.3414	-1.065000	103.699
-19.3414	-1.065000	62.5819
-17.3414	-1.065000	201.663
-15.3414	-1.065000	119.539
-13.3414	-1.065000	138.09
-11.3414	-1.065000	134.882
-9.341423	-1.065000	159.869
-7.341423	-1.065000	150.909
-5.341423	-1.065000	122.885
-3.341423	-1.065000	198.945
-1.341423	-1.065000	0.639823
0.658577	-1.065000	119.962
2.658577	-1.065000	115.851
4.658577	-1.065000	152.112
6.658577	-1.065000	149.79
8.658577	-1.065000	111.284
10.6586	-1.065000	149.967
12.6586	-1.065000	136.005
14.6586	-1.065000	116.303
16.6586	-1.065000	128.376
18.6586	-1.065000	111.684
20.6586	-1.065000	122.511
22.6586	-1.065000	140.497
24.6586	-1.065000	263.793
-38.3414	-0.065000	120.938
-36.3414	-0.065000	124.077
-34.3414	-0.065000	154.002
-32.3414	-0.065000	298.611
-30.3414	-0.065000	242.522
-28.3414	-0.065000	0.639823
-26.3414	-0.065000	183.633
-24.3414	-0.065000	131.435
-22.3414	-0.065000	73.8045
-20.3414	-0.065000	128.672
-18.3414	-0.065000	109.232
-16.3414	-0.065000	113.617
-14.3414	-0.065000	119.56
-12.3414	-0.065000	132.923
-10.3414	-0.065000	156.784
-8.341423	-0.065000	155.433
-6.341423	-0.065000	140.852
-4.341423	-0.065000	161.367
-2.341423	-0.065000	124.161
-0.341423	-0.065000	0.639823
1.658577	-0.065000	100.379
3.658577	-0.065000	133.69
5.658577	-0.065000	131.999
7.658577	-0.065000	119.687
9.658577	-0.065000	117.103
11.6586	-0.065000	129.431
13.6586	-0.065000	0.639823
15.6586	-0.065000	133.909
17.6586	-0.065000	153.494
19.6586	-0.065000	77.0062
21.6586	-0.065000	131.199
23.6586	-0.065000	192.515
-39.3414	0.935000	63.7222
-37.3414	0.935000	14.4481
-35.3414	0.935000	261.905
-33.3414	0.935000	125.589
-31.3414	0.935000	151.093
-29.3414	0.935000	185.755
-27.3414	0.935000	143.097
-25.3414	0.935000	6.425840
-23.3414	0.935000	128.853
-21.3414	0.935000	124.215
-19.3414	0.935000	108.076
-17.3414	0.935000	144.419
-15.3414	0.935000	153.438
-13.3414	0.935000	133.495
-11.3414	0.935000	0.639823
-9.341423	0.935000	149.732
-7.341423	0.935000	194.951
-5.341423	0.935000	0.639823
-3.341423	0.935000	125.249
-1.341423	0.935000	125.401
0.658577	0.935000	129.876
2.658577	0.935000	163.518
4.658577	0.935000	128.017
6.658577	0.935000	0.639823
8.658577	0.935000	118.083
10.6586	0.935000	129.065
12.6586	0.935000	115.078
14.6586	0.935000	126.548
16.6586	0.935000	158.771
18.6586	0.935000	124.297
20.6586	0.935000	125.307
22.6586	0.935000	123.392
24.6586	0.935000	161.391
-38.3414	1.935000	125.877
-36.3414	1.935000	119.009
-34.3414	1.935000	146.308
-32.3414	1.935000	96.5193
-30.3414	1.935000	139.526
-28.3414	1.935000	110.984
-26.3414	1.935000	116.4
-24.3414	1.935000	154.895
-22.3414	1.935000	125.412
-20.3414	1.935000	122.808
-18.3414	1.935000	34.2763
-16.3414	1.935000	63.3797
-14.3414	1.935000	122.405
-12.3414	1.935000	0.639823
-10.3414	1.935000	121.499
-8.341423	1.935000	130.868
-6.341423	1.935000	158.671
-4.341423	1.935000	0.639823
-2.341423	1.935000	130.541
-0.341423	1.935000	121.566
1.658577	1.935000	224.805
3.658577	1.935000	174.816
5.658577	1.935000	119.079
7.658577	1.935000	124.083
9.658577	1.935000	0.639823
11.6586	1.935000	117.853
13.6586	1.935000	0.639823
15.6586	1.935000	137.307
17.6586	1.935000	129.979
19.6586	1.935000	126.756
21.6586	1.935000	129.831
23.6586	1.935000	124.737
-39.3414	2.935000	706.361
-37.3414	2.935000	111.942
-35.3414	2.935000	146.841
-33.3414	2.935000	143.037
-31.3414	2.935000	132.036
-29.3414	2.935000	129.477
-27.3414	2.935000	116.82
-25.3414	2.935000	125.738
-23.3414	2.935000	105.289
-21.3414	2.935000	123.616
-19.3414	2.935000	115.48
-17.3414	2.935000	300.699
-15.3414	2.935000	144.662
-13.3414	2.935000	110.342
-11.3414	2.935000	117.591
-9.341423	2.935000	105.593
-7.341423	2.935000	128.469
-5.341423	2.935000	0.639823
-3.341423	2.935000	108.442
-1.341423	2.935000	111.503
0.658577	2.935000	113.439
2.658577	2.935000	137.112
4.658577	2.935000	129.767
6.658577	2.935000	93.6554
8.658577	2.935000	111.441
10.6586	2.935000	0.639823
12.6586	2.935000	126.954
14.6586	2.935000	118.599
16.6586	2.935000	149.474
18.6586	2.935000	144.15
20.6586	2.935000	122.989
22.6586	2.935000	117.382
24.6586	2.935000	180.059
-38.3414	3.935000	135.792
-36.3414	3.935000	158.551
-34.3414	3.935000	201.471
-32.3414	3.935000	128.524
-30.3414	3.935000	138.042
-28.3414	3.935000	124.392
-26.3414	3.935000	139.718
-24.3414	3.935000	201.271
-22.3414	3.935000	183.869
-20.3414	3.935000	118.385
-18.3414	3.935000	150.436
-16.3414	3.935000	119.282
-14.3414	3.935000	390.237
-12.3414	3.935000	138.4
-10.3414	3.935000	107.128
-8.341423	3.935000	130.397
-6.341423	3.935000	140.561
-4.341423	3.935000	75.8755
-2.341423	3.935000	131.089
-0.341423	3.935000	0.639823
1.658577	3.935000	129.106
3.658577	3.935000	167.678
5.658577	3.935000	119.199
7.658577	3.935000	110.868
9.658577	3.935000	104.646
11.6586	3.935000	153.862
13.6586	3.935000	139.984
15.6586	3.935000	180.063
17.6586	3.935000	108.588
19.6586	3.935000	0.639823
21.6586	3.935000	113.827
23.6586	3.935000	124.979
-39.3414	4.935000	0.639823
-37.3414	4.935000	0.639823
-35.3414	4.935000	121.592
-33.3414	4.935000	195.972
-31.3414	4.935000	118.248
-29.3414	4.935000	105.383
-27.3414	4.935000	128.497
-25.3414	4.935000	122.722
-23.3414	4.935000	174.844
-21.3414	4.935000	140.124
-19.3414	4.935000	129.528
-17.3414	4.935000	128.282
-15.3414	4.935000	119.993
-13.3414	4.935000	325.499
-11.3414	4.935000	124.891
-9.341423	4.935000	110.417
-7.341423	4.935000	125.221
-5.341423	4.935000	45.4697
-3.341423	4.935000	0.639823
-1.341423	4.935000	111.189
0.658577	4.935000	0.639823
2.658577	4.935000	118.234
4.658577	4.935000	121.903
6.658577	4.935000	0.639823
8.658577	4.935000	113.71
10.6586	4.935000	149.099
12.6586	4.935000	150.096
14.6586	4.935000	110.347
16.6586	4.935000	118.594
18.6586	4.935000	0.639823
20.6586	4.935000	109.076
22.6586	4.935000	0.639823
24.6586	4.935000	187.492
-38.3414	5.935000	140.877
-36.3414	5.935000	134.578
-34.3414	5.935000	150.209
-32.3414	5.935000	138.967
-30.3414	5.935000	25.97
-28.3414	5.935000	1122.71
-26.3414	5.935000	110.957
-24.3414	5.935000	119.723
-22.3414	5.935000	158.529
-20.3414	5.935000	144.221
-18.3414	5.935000	137.643
-16.3414	5.935000	148.72
-14.3414	5.935000	122.624
-12.3414	5.935000	95.7588
-10.3414	5.935000	103.797
-8.341423	5.935000	115.528
-6.341423	5.935000	124.96
-4.341423	5.935000	227.502
-2.341423	5.935000	123.913
-0.341423	5.935000	112.624
1.658577	5.935000	0.639823
3.658577	5.935000	109.999
5.658577	5.935000	129.637
7.658577	5.935000	157.478
9.658577	5.935000	113.87
11.6586	5.935000	118.546
13.6586	5.935000	113.942
15.6586	5.935000	2.148274
17.6586	5.935000	173.424
19.6586	5.935000	110.669
21.6586	5.935000	117.933
23.6586	5.935000	145.05
-39.3414	6.935000	120.543
-37.3414	6.935000	138.278
-35.3414	6.935000	157.319
-33.3414	6.935000	139.61
-31.3414	6.935000	126.886
-29.3414	6.935000	138.859
-27.3414	6.935000	140.067
-25.3414	6.935000	129.204
-23.3414	6.935000	125.15
-21.3414	6.935000	124.08
-19.3414	6.935000	0.639823
-17.3414	6.935000	121.888
-15.3414	6.935000	141.174
-13.3414	6.935000	104.855
-11.3414	6.935000	137.96
-9.341423	6.935000	132.531
-7.341423	6.935000	129.139
-5.341423	6.935000	101.367
-3.341423	6.935000	130.244
-1.341423	6.935000	0.639823
0.658577	6.935000	0.639823
2.658577	6.935000	108.417
4.658577	6.935000	136.007
6.658577	6.935000	123.905
8.658577	6.935000	146.823
10.6586	6.935000	0.639823
12.6586	6.935000	113.054
14.6586	6.935000	168.774
16.6586	6.935000	98.4656
18.6586	6.935000	111.254
20.6586	6.935000	101.48
22.6586	6.935000	135.449
24.6586	6.935000	135.315
-38.3414	7.935000	132.547
-36.3414	7.935000	129.114
-34.3414	7.935000	142.225
-32.3414	7.935000	140.403
-30.3414	7.935000	126.947
-28.3414	7.935000	103.324
-26.3414	7.935000	157.392
-24.3414	7.935000	128.197
-22.3414	7.935000	162.815
-20.3414	7.935000	149.622
-18.3414	7.935000	121.406
-16.3414	7.935000	122.868
-14.3414	7.935000	150.513
-12.3414	7.935000	118.348
-10.3414	7.935000	182.149
-8.341423	7.935000	140.873
-6.341423	7.935000	125.341
-4.341423	7.935000	121.506
-2.341423	7.935000	0.639823
-0.341423	7.935000	151.174
1.658577	7.935000	112.189
3.658577	7.935000	145.079
5.658577	7.935000	124.397
7.658577	7.935000	133.588
9.658577	7.935000	128.694
11.6586	7.935000	118.773
13.6586	7.935000	121.828
15.6586	7.935000	148.392
17.6586	7.935000	130.683
19.6586	7.935000	98.4957
21.6586	7.935000	5.286248
23.6586	7.935000	135.696
-39.3414	8.935000	0.639823
-37.3414	8.935000	122.254
-35.3414	8.935000	112.115
-33.3414	8.935000	139.804
-31.3414	8.935000	127.498
-29.3414	8.935000	130.804
-27.3414	8.935000	157.969
-25.3414	8.935000	127.644
-23.3414	8.935000	139.321
-21.3414	8.935000	138.776
-19.3414	8.935000	119.271
-17.3414	8.935000	135.336
-15.3414	8.935000	1.352196
-13.3414	8.935000	137.664
-11.3414	8.935000	150.335
-9.341423	8.935000	173.681
-7.341423	8.935000	137.332
-5.341423	8.935000	164.3
-3.341423	8.935000	117.827
-1.341423	8.935000	0.639823
0.658577	8.935000	0.639823
2.658577	8.935000	111.227
4.658577	8.935000	125.334
6.658577	8.935000	130.719
8.658577	8.935000	144.048
10.6586	8.935000	128.765
12.6586	8.935000	124.304
14.6586	8.935000	98.0433
16.6586	8.935000	153.603
18.6586	8.935000	192.323
20.6586	8.935000	395.715
22.6586	8.935000	92.6632
24.6586	8.935000	117.504
-38.3414	9.935000	163.061
-36.3414	9.935000	139.304
-34.3414	9.935000	0.639823
-32.3414	9.935000	0.639823
-30.3414	9.935000	146.376
-28.3414	9.935000	107.712
-26.3414	9.935000	102.072
-24.3414	9.935000	103.135
-22.3414	9.935000	139.458
-20.3414	9.935000	120.691
-18.3414	9.935000	125.213
-16.3414	9.935000	0.891662
-14.3414	9.935000	115.502
-12.3414	9.935000	157.545
-10.3414	9.935000	179.705
-8.341423	9.935000	149.662
-6.341423	9.935000	111.664
-4.341423	9.935000	123.244
-2.341423	9.935000	112.263
-0.341423	9.935000	107.028
1.658577	9.935000	152.341
3.658577	9.935000	146.623
5.658577	9.935000	174.972
7.658577	9.935000	152.605
9.658577	9.935000	125.946
11.6586	9.935000	151.069
13.6586	9.935000	104.211
15.6586	9.935000	2379.09
17.6586	9.935000	1844.34
19.6586	9.935000	32.7702
21.6586	9.935000	116.041
23.6586	9.935000	34.2925
-39.3414	10.935	144.162
-37.3414	10.935	138.934
-35.3414	10.935	129.339
-33.3414	10.935	108.855
-31.3414	10.935	133.351
-29.3414	10.935	0.639823
-27.3414	10.935	137.528
-25.3414	10.935	80.0756
-23.3414	10.935	173.206
-21.3414	10.935	103.419
-19.3414	10.935	119.808
-17.3414	10.935	114.509
-15.3414	10.935	123.611
-13.3414	10.935	138.674
-11.3414	10.935	141.518
-9.341423	10.935	164.71
-7.341423	10.935	120.101
-5.341423	10.935	0.639823
-3.341423	10.935	105.668
-1.341423	10.935	108.282
0.658577	10.935	134.185
2.658577	10.935	149.875
4.658577	10.935	180.851
6.658577	10.935	102.258
8.658577	10.935	163.635
10.6586	10.935	145.78
12.6586	10.935	121.287
14.6586	10.935	2595.12
16.6586	10.935	52.2174
18.6586	10.935	2595.12
20.6586	10.935	108.108
22.6586	10.935	117.926
24.6586	10.935	147.86
-38.3414	11.935	123.299
-36.3414	11.935	121
-34.3414	11.935	168.511
-32.3414	11.935	156.178
-30.3414	11.935	137.645
-28.3414	11.935	110.715
-26.3414	11.935	141.225
-24.3414	11.935	1103.55
-22.3414	11.935	148.961
-20.3414	11.935	147.566
-18.3414	11.935	118.954
-16.3414	11.935	142.656
-14.3414	11.935	121.864
-12.3414	11.935	184.201
-10.3414	11.935	219.264
-8.341423	11.935	116.246
-6.341423	11.935	150.6
-4.341423	11.935	127.17
-2.341423	11.935	127.04
-0.341423	11.935	120.695
1.658577	11.935	147.371
3.658577	11.935	213.675
5.658577	11.935	144.345
7.658577	11.935	0.639823
9.658577	11.935	115.5
11.6586	11.935	151.095
13.6586	11.935	97.0864
15.6586	11.935	2595.12
17.6586	11.935	156.594
19.6586	11.935	38.2529
21.6586	11.935	107.188
23.6586	11.935	116.277
-39.3414	12.935	134.591
-37.3414	12.935	124.39
-35.3414	12.935	116.088
-33.3414	12.935	119.321
-31.3414	12.935	134.685
-29.3414	12.935	96.988
-27.3414	12.935	139.454
-25.3414	12.935	1308.71
-23.3414	12.935	125.416
-21.3414	12.935	120.049
-19.3414	12.935	144.611
-17.3414	12.935	113.674
-15.3414	12.935	127.74
-13.3414	12.935	118.882
-11.3414	12.935	191.021
-9.341423	12.935	129.247
-7.341423	12.935	100.235
-5.341423	12.935	124.444
-3.341423	12.935	135.42
-1.341423	12.935	129.941
0.658577	12.935	119.22
2.658577	12.935	113.166
4.658577	12.935	94.781
6.658577	12.935	132.448
8.658577	12.935	158.317
10.6586	12.935	140.756
12.6586	12.935	126.527
14.6586	12.935	0.702268
16.6586	12.935	2595.12
18.6586	12.935	7.532866
20.6586	12.935	2595.12
22.6586	12.935	95.0701
24.6586	12.935	58.1192
-38.3414	13.935	143.595
-36.3414	13.935	136.324
-34.3414	13.935	0.639823
-32.3414	13.935	141.829
-30.3414	13.935	0.639823
-28.3414	13.935	127.037
-26.3414	13.935	106.084
-24.3414	13.935	122.302
-22.3414	13.935	123.25
-20.3414	13.935	0.639823
-18.3414	13.935	125.042
-16.3414	13.935	115.475
-14.3414	13.935	121.093
-12.3414	13.935	118.966
-10.3414	13.935	145.297
-8.341423	13.935	137.441
-6.341423	13.935	111.887
-4.341423	13.935	118.917
-2.341423	13.935	143.015
-0.341423	13.935	131.349
1.658577	13.935	135.338
3.658577	13.935	146.857
5.658577	13.935	1845.84
7.658577	13.935	112.713
9.658577	13.935	117.352
11.6586	13.935	147.647
13.6586	13.935	65.5092
15.6586	13.935	2595.12
17.6586	13.935	0.639823
19.6586	13.935	2595.12
21.6586	13.935	97.0834
23.6586	13.935	220.486
-39.3414	14.935	0.639823
-37.3414	14.935	120.044
-35.3414	14.935	0.639823
-33.3414	14.935	135.746
-31.3414	14.935	123.272
-29.3414	14.935	117.803
-27.3414	14.935	111.722
-25.3414	14.935	137.651
-23.3414	14.935	99.4059
-21.3414	14.935	122.012
-19.3414	14.935	125.945
-17.3414	14.935	143.346
-15.3414	14.935	122.203
-13.3414	14.935	94.1278
-11.3414	14.935	74.3499
-9.341423	14.935	52.733
-7.341423	14.935	111.325
-5.341423	14.935	136.168
-3.341423	14.935	128.235
-1.341423	14.935	104.472
0.658577	14.935	173.957
2.658577	14.935	160.401
4.658577	14.935	300.75
6.658577	14.935	202.84
8.658577	14.935	135.382
10.6586	14.935	121.295
12.6586	14.935	78.3009
14.6586	14.935	2595.12
16.6586	14.935	2595.12
18.6586	14.935	2595.12
20.6586	14.935	2595.12
22.6586	14.935	2595.12
24.6586	14.935	2595.12
-38.3414	15.935	120.87
-36.3414	15.935	133.761
-34.3414	15.935	132.056
-32.3414	15.935	126.193
-30.3414	15.935	118.699
-28.3414	15.935	112.681
-26.3414	15.935	98.2383
-24.3414	15.935	112.871
-22.3414	15.935	72.7166
-20.3414	15.935	153.533
-18.3414	15.935	125.447
-16.3414	15.935	111.742
-14.3414	15.935	0.639823
-12.3414	15.935	0.639823
-10.3414	15.935	112.013
-8.341423	15.935	1.790054
-6.341423	15.935	92.958
-4.341423	15.935	224.869
-2.341423	15.935	133.866
-0.341423	15.935	131.061
1.658577	15.935	139.111
3.658577	15.935	96.3339
5.658577	15.935	2462.27
7.658577	15.935	243.967
9.658577	15.935	120.691
11.6586	15.935	115.365
13.6586	15.935	146.286
15.6586	15.935	2595.12
17.6586	15.935	2595.12
19.6586	15.935	0.639823
21.6586	15.935	2595.12
23.6586	15.935	213.207
24.6586	15.935	1089.63