File: data/derived_data/raman/20170920_Gr-NH2_for_Radisurf/20170920 Gr-NH for Radisurf map 2/2Dp int.txt
#XList		#YList		#IList
-39.3414	-21.065	31.9634
-37.3414	-21.065	17.0637
-35.3414	-21.065	17.3771
-33.3414	-21.065	92.6657
-31.3414	-21.065	109.29
-29.3414	-21.065	73.0573
-27.3414	-21.065	62.8322
-25.3414	-21.065	18.8907
-23.3414	-21.065	2.576865
-21.3414	-21.065	21.0705
-19.3414	-21.065	1.299882
-17.3414	-21.065	31.442
-15.3414	-21.065	142.875
-13.3414	-21.065	72.993
-11.3414	-21.065	19.7374
-9.341423	-21.065	5.168700
-7.341423	-21.065	37.4744
-5.341423	-21.065	42.1987
-3.341423	-21.065	8.119543
-1.341423	-21.065	27.3976
0.658577	-21.065	42.0909
2.658577	-21.065	30.1605
4.658577	-21.065	21.5416
6.658577	-21.065	4.855868
8.658577	-21.065	2.191469
10.6586	-21.065	8.717342
12.6586	-21.065	30.2433
14.6586	-21.065	44.2822
16.6586	-21.065	26.6092
18.6586	-21.065	60.9055
20.6586	-21.065	37.1278
22.6586	-21.065	1.897995
24.6586	-21.065	4.143165
-38.3414	-20.065	29.9387
-36.3414	-20.065	16.4311
-34.3414	-20.065	26.6519
-32.3414	-20.065	0.000000
-30.3414	-20.065	0.000000
-28.3414	-20.065	45.6468
-26.3414	-20.065	47.8905
-24.3414	-20.065	29.571
-22.3414	-20.065	8.387304
-20.3414	-20.065	31.6463
-18.3414	-20.065	15.9729
-16.3414	-20.065	131.253
-14.3414	-20.065	97.9376
-12.3414	-20.065	108.515
-10.3414	-20.065	21.5266
-8.341423	-20.065	50.2481
-6.341423	-20.065	35.98
-4.341423	-20.065	17.3988
-2.341423	-20.065	65.4498
-0.341423	-20.065	54.7903
1.658577	-20.065	29.9736
3.658577	-20.065	16.8594
5.658577	-20.065	4.537117
7.658577	-20.065	3.321755
9.658577	-20.065	17.6526
11.6586	-20.065	23.1304
13.6586	-20.065	45.1995
15.6586	-20.065	56.3239
17.6586	-20.065	30.0917
19.6586	-20.065	77.5762
21.6586	-20.065	30.7226
23.6586	-20.065	1.255705
-39.3414	-19.065	46.7421
-37.3414	-19.065	21.9285
-35.3414	-19.065	25.4567
-33.3414	-19.065	21.8619
-31.3414	-19.065	141.003
-29.3414	-19.065	57.1218
-27.3414	-19.065	47.8131
-25.3414	-19.065	52.3248
-23.3414	-19.065	57.3115
-21.3414	-19.065	50.8299
-19.3414	-19.065	69.9047
-17.3414	-19.065	113.902
-15.3414	-19.065	129.669
-13.3414	-19.065	93.6851
-11.3414	-19.065	36.9478
-9.341423	-19.065	51.4243
-7.341423	-19.065	51.6832
-5.341423	-19.065	34.3755
-3.341423	-19.065	68.5715
-1.341423	-19.065	43.1179
0.658577	-19.065	18.0972
2.658577	-19.065	28.4898
4.658577	-19.065	27.4617
6.658577	-19.065	2.159375
8.658577	-19.065	40.9602
10.6586	-19.065	25.0926
12.6586	-19.065	42.7429
14.6586	-19.065	42.8366
16.6586	-19.065	43.1569
18.6586	-19.065	55.8176
20.6586	-19.065	74.4431
22.6586	-19.065	7.572730
24.6586	-19.065	2.338482
-38.3414	-18.065	40.6777
-36.3414	-18.065	36.2065
-34.3414	-18.065	1.500232
-32.3414	-18.065	81.4771
-30.3414	-18.065	98.3286
-28.3414	-18.065	66.257
-26.3414	-18.065	62.832
-24.3414	-18.065	59.2658
-22.3414	-18.065	61.6655
-20.3414	-18.065	55.2364
-18.3414	-18.065	32.072
-16.3414	-18.065	88.2797
-14.3414	-18.065	116.818
-12.3414	-18.065	98.4024
-10.3414	-18.065	71.8089
-8.341423	-18.065	45.5035
-6.341423	-18.065	62.867
-4.341423	-18.065	36.5552
-2.341423	-18.065	41.4852
-0.341423	-18.065	33.9858
1.658577	-18.065	17.3086
3.658577	-18.065	22.6991
5.658577	-18.065	10.1107
7.658577	-18.065	100.999
9.658577	-18.065	76.2751
11.6586	-18.065	115.978
13.6586	-18.065	69.8638
15.6586	-18.065	49.8497
17.6586	-18.065	45.7337
19.6586	-18.065	26.3139
21.6586	-18.065	22.0216
23.6586	-18.065	57.0136
-39.3414	-17.065	71.4132
-37.3414	-17.065	114.976
-35.3414	-17.065	2.541413
-33.3414	-17.065	4.478796
-31.3414	-17.065	49.1757
-29.3414	-17.065	58.9294
-27.3414	-17.065	55.6288
-25.3414	-17.065	56.323
-23.3414	-17.065	63.4233
-21.3414	-17.065	60.878
-19.3414	-17.065	19.4438
-17.3414	-17.065	50.7148
-15.3414	-17.065	129.671
-13.3414	-17.065	115.135
-11.3414	-17.065	70.4419
-9.341423	-17.065	40.7877
-7.341423	-17.065	12.6279
-5.341423	-17.065	69.8436
-3.341423	-17.065	36.5953
-1.341423	-17.065	58.2799
0.658577	-17.065	29.7346
2.658577	-17.065	27.1255
4.658577	-17.065	47.0743
6.658577	-17.065	45.859
8.658577	-17.065	69.0155
10.6586	-17.065	74.63
12.6586	-17.065	97.0672
14.6586	-17.065	38.4424
16.6586	-17.065	28.0193
18.6586	-17.065	15.1926
20.6586	-17.065	8.502046
22.6586	-17.065	36.5939
24.6586	-17.065	58.1701
-38.3414	-16.065	71.2678
-36.3414	-16.065	9.673912
-34.3414	-16.065	33.363
-32.3414	-16.065	109.604
-30.3414	-16.065	65.3176
-28.3414	-16.065	56.798
-26.3414	-16.065	64.4882
-24.3414	-16.065	63.7286
-22.3414	-16.065	49.8721
-20.3414	-16.065	4.642096
-18.3414	-16.065	4.437656
-16.3414	-16.065	0.000000
-14.3414	-16.065	164.755
-12.3414	-16.065	107.216
-10.3414	-16.065	41.3267
-8.341423	-16.065	19.9772
-6.341423	-16.065	59.5109
-4.341423	-16.065	53.9824
-2.341423	-16.065	16.2192
-0.341423	-16.065	81.2376
1.658577	-16.065	27.8659
3.658577	-16.065	13.5689
5.658577	-16.065	43.5758
7.658577	-16.065	61.3662
9.658577	-16.065	61.4186
11.6586	-16.065	117.734
13.6586	-16.065	10.3607
15.6586	-16.065	61.2641
17.6586	-16.065	28.6619
19.6586	-16.065	32.7636
21.6586	-16.065	39.1888
23.6586	-16.065	47.5662
-39.3414	-15.065	12.8686
-37.3414	-15.065	20.8784
-35.3414	-15.065	0.000000
-33.3414	-15.065	21.6449
-31.3414	-15.065	88.8632
-29.3414	-15.065	72.3947
-27.3414	-15.065	80.3374
-25.3414	-15.065	67.3881
-23.3414	-15.065	54.9044
-21.3414	-15.065	34.5877
-19.3414	-15.065	3.532345
-17.3414	-15.065	64.3037
-15.3414	-15.065	104.787
-13.3414	-15.065	112.395
-11.3414	-15.065	29.8124
-9.341423	-15.065	45.9534
-7.341423	-15.065	33.0302
-5.341423	-15.065	54.0078
-3.341423	-15.065	23.8121
-1.341423	-15.065	23.5728
0.658577	-15.065	61.8223
2.658577	-15.065	25.1204
4.658577	-15.065	40.9766
6.658577	-15.065	102.983
8.658577	-15.065	68.6238
10.6586	-15.065	69.462
12.6586	-15.065	8.265657
14.6586	-15.065	30.0485
16.6586	-15.065	20.9229
18.6586	-15.065	41.3606
20.6586	-15.065	12.3372
22.6586	-15.065	74.542
24.6586	-15.065	21.934
-38.3414	-14.065	29.1524
-36.3414	-14.065	140.483
-34.3414	-14.065	125.89
-32.3414	-14.065	0.000000
-30.3414	-14.065	76.0448
-28.3414	-14.065	73.6891
-26.3414	-14.065	80.1383
-24.3414	-14.065	52.8578
-22.3414	-14.065	48.9598
-20.3414	-14.065	26.1245
-18.3414	-14.065	28.7288
-16.3414	-14.065	49.1599
-14.3414	-14.065	99.0598
-12.3414	-14.065	36.4309
-10.3414	-14.065	36.2848
-8.341423	-14.065	20.16
-6.341423	-14.065	33.8801
-4.341423	-14.065	15.6769
-2.341423	-14.065	14.4172
-0.341423	-14.065	49.7148
1.658577	-14.065	39.5076
3.658577	-14.065	15.2995
5.658577	-14.065	49.9476
7.658577	-14.065	107.427
9.658577	-14.065	100.662
11.6586	-14.065	4.298612
13.6586	-14.065	36.8989
15.6586	-14.065	3.004695
17.6586	-14.065	6.101346
19.6586	-14.065	20.2108
21.6586	-14.065	46.2252
23.6586	-14.065	30.1048
-39.3414	-13.065	88.003
-37.3414	-13.065	146.155
-35.3414	-13.065	0.000000
-33.3414	-13.065	0.000000
-31.3414	-13.065	120.675
-29.3414	-13.065	98.279
-27.3414	-13.065	73.9488
-25.3414	-13.065	52.558
-23.3414	-13.065	55.7544
-21.3414	-13.065	36.813
-19.3414	-13.065	25.1257
-17.3414	-13.065	4.557529
-15.3414	-13.065	25.0145
-13.3414	-13.065	6.875986
-11.3414	-13.065	30.7877
-9.341423	-13.065	24.6578
-7.341423	-13.065	25.0593
-5.341423	-13.065	33.8116
-3.341423	-13.065	31.3604
-1.341423	-13.065	33.6275
0.658577	-13.065	49.83
2.658577	-13.065	23.1223
4.658577	-13.065	25.641
6.658577	-13.065	43.4121
8.658577	-13.065	95.8852
10.6586	-13.065	5.955789
12.6586	-13.065	7.082805
14.6586	-13.065	36.5859
16.6586	-13.065	20.271
18.6586	-13.065	38.8469
20.6586	-13.065	69.6355
22.6586	-13.065	72.6462
24.6586	-13.065	27.5771
-38.3414	-12.065	74.8423
-36.3414	-12.065	89.2079
-34.3414	-12.065	125.366
-32.3414	-12.065	124.765
-30.3414	-12.065	117.235
-28.3414	-12.065	87.3113
-26.3414	-12.065	71.564
-24.3414	-12.065	48.3965
-22.3414	-12.065	57.5102
-20.3414	-12.065	19.8578
-18.3414	-12.065	10.1373
-16.3414	-12.065	9.025318
-14.3414	-12.065	6.198762
-12.3414	-12.065	31.7882
-10.3414	-12.065	37.0225
-8.341423	-12.065	25.3795
-6.341423	-12.065	56.0726
-4.341423	-12.065	17.5769
-2.341423	-12.065	49.6407
-0.341423	-12.065	54.016
1.658577	-12.065	21.5366
3.658577	-12.065	14.4232
5.658577	-12.065	26.2918
7.658577	-12.065	42.0274
9.658577	-12.065	1.684720
11.6586	-12.065	2.827046
13.6586	-12.065	23.8831
15.6586	-12.065	52.7518
17.6586	-12.065	55.0919
19.6586	-12.065	38.8023
21.6586	-12.065	35.0409
23.6586	-12.065	53.5311
-39.3414	-11.065	12.5799
-37.3414	-11.065	153.662
-35.3414	-11.065	113.188
-33.3414	-11.065	118.984
-31.3414	-11.065	109.781
-29.3414	-11.065	127.895
-27.3414	-11.065	96.4813
-25.3414	-11.065	67.0668
-23.3414	-11.065	45.8474
-21.3414	-11.065	25.9626
-19.3414	-11.065	42.8234
-17.3414	-11.065	16.5647
-15.3414	-11.065	47.7361
-13.3414	-11.065	9.490808
-11.3414	-11.065	42.9077
-9.341423	-11.065	16.3751
-7.341423	-11.065	38.1638
-5.341423	-11.065	20.6968
-3.341423	-11.065	17.2553
-1.341423	-11.065	35.2168
0.658577	-11.065	30.1055
2.658577	-11.065	46.372
4.658577	-11.065	11.037
6.658577	-11.065	17.4246
8.658577	-11.065	50.5405
10.6586	-11.065	3.502633
12.6586	-11.065	3.102764
14.6586	-11.065	39.7904
16.6586	-11.065	29.7059
18.6586	-11.065	22.6804
20.6586	-11.065	15.3665
22.6586	-11.065	18.7045
24.6586	-11.065	44.626
-38.3414	-10.065	140.292
-36.3414	-10.065	116.894
-34.3414	-10.065	111.956
-32.3414	-10.065	0.000000
-30.3414	-10.065	0.000000
-28.3414	-10.065	0.000000
-26.3414	-10.065	129.415
-24.3414	-10.065	52.4345
-22.3414	-10.065	5.762735
-20.3414	-10.065	36.0167
-18.3414	-10.065	27.219
-16.3414	-10.065	39.011
-14.3414	-10.065	66.7513
-12.3414	-10.065	86.9351
-10.3414	-10.065	38.3489
-8.341423	-10.065	11.5183
-6.341423	-10.065	7.964913
-4.341423	-10.065	9.124178
-2.341423	-10.065	18.2114
-0.341423	-10.065	49.6172
1.658577	-10.065	54.7713
3.658577	-10.065	6.899864
5.658577	-10.065	33.8212
7.658577	-10.065	51.2344
9.658577	-10.065	2.712433
11.6586	-10.065	0.065037
13.6586	-10.065	34.9628
15.6586	-10.065	46.8769
17.6586	-10.065	19.5491
19.6586	-10.065	19.73
21.6586	-10.065	13.7597
23.6586	-10.065	23.6658
-39.3414	-9.065000	0.000000
-37.3414	-9.065000	127.347
-35.3414	-9.065000	141.792
-33.3414	-9.065000	0.000000
-31.3414	-9.065000	134.643
-29.3414	-9.065000	134.186
-27.3414	-9.065000	141.584
-25.3414	-9.065000	53.972
-23.3414	-9.065000	6.355112
-21.3414	-9.065000	0.525829
-19.3414	-9.065000	34.8928
-17.3414	-9.065000	26.1636
-15.3414	-9.065000	93.4321
-13.3414	-9.065000	54.8125
-11.3414	-9.065000	166.143
-9.341423	-9.065000	44.2141
-7.341423	-9.065000	9.470522
-5.341423	-9.065000	4.467254
-3.341423	-9.065000	13.2969
-1.341423	-9.065000	28.6171
0.658577	-9.065000	42.8996
2.658577	-9.065000	18.7212
4.658577	-9.065000	27.4976
6.658577	-9.065000	59.1486
8.658577	-9.065000	1.888734
10.6586	-9.065000	2.293027
12.6586	-9.065000	30.4719
14.6586	-9.065000	20.219
16.6586	-9.065000	34.9225
18.6586	-9.065000	19.3135
20.6586	-9.065000	23.4145
22.6586	-9.065000	23.9811
24.6586	-9.065000	10.2334
-38.3414	-8.065000	121.276
-36.3414	-8.065000	0.000000
-34.3414	-8.065000	139.872
-32.3414	-8.065000	39.5887
-30.3414	-8.065000	121.655
-28.3414	-8.065000	126.355
-26.3414	-8.065000	80.4699
-24.3414	-8.065000	32.4423
-22.3414	-8.065000	1.226247
-20.3414	-8.065000	15.944
-18.3414	-8.065000	45.6639
-16.3414	-8.065000	96.0595
-14.3414	-8.065000	64.9083
-12.3414	-8.065000	76.9259
-10.3414	-8.065000	55.1437
-8.341423	-8.065000	90.062
-6.341423	-8.065000	6.742147
-4.341423	-8.065000	4.354052
-2.341423	-8.065000	4.266478
-0.341423	-8.065000	14.9705
1.658577	-8.065000	7.570096
3.658577	-8.065000	20.3181
5.658577	-8.065000	72.6774
7.658577	-8.065000	42.9905
9.658577	-8.065000	3.407902
11.6586	-8.065000	2.679939
13.6586	-8.065000	35.2541
15.6586	-8.065000	34.2787
17.6586	-8.065000	48.4765
19.6586	-8.065000	22.529
21.6586	-8.065000	12.4428
23.6586	-8.065000	29.9262
-39.3414	-7.065000	127.506
-37.3414	-7.065000	129.78
-35.3414	-7.065000	150.968
-33.3414	-7.065000	153.751
-31.3414	-7.065000	134.858
-29.3414	-7.065000	138.268
-27.3414	-7.065000	27.3064
-25.3414	-7.065000	94.3032
-23.3414	-7.065000	22.3442
-21.3414	-7.065000	16.885
-19.3414	-7.065000	48.7937
-17.3414	-7.065000	108.968
-15.3414	-7.065000	64.3686
-13.3414	-7.065000	58.9786
-11.3414	-7.065000	81.5584
-9.341423	-7.065000	117.842
-7.341423	-7.065000	6.583171
-5.341423	-7.065000	2.990278
-3.341423	-7.065000	31.0559
-1.341423	-7.065000	4.807704
0.658577	-7.065000	1.229428
2.658577	-7.065000	28.7894
4.658577	-7.065000	48.8151
6.658577	-7.065000	19.2592
8.658577	-7.065000	0.000000
10.6586	-7.065000	23.0726
12.6586	-7.065000	13.1834
14.6586	-7.065000	87.2049
16.6586	-7.065000	36.9913
18.6586	-7.065000	22.422
20.6586	-7.065000	42.9603
22.6586	-7.065000	32.7186
24.6586	-7.065000	19.2961
-38.3414	-6.065000	123.249
-36.3414	-6.065000	128.584
-34.3414	-6.065000	143.887
-32.3414	-6.065000	145.876
-30.3414	-6.065000	134.806
-28.3414	-6.065000	104.488
-26.3414	-6.065000	79.9268
-24.3414	-6.065000	0.000000
-22.3414	-6.065000	74.1295
-20.3414	-6.065000	20.2367
-18.3414	-6.065000	1.614364
-16.3414	-6.065000	103.416
-14.3414	-6.065000	91.7141
-12.3414	-6.065000	71.8212
-10.3414	-6.065000	108.284
-8.341423	-6.065000	143.87
-6.341423	-6.065000	53.5968
-4.341423	-6.065000	1.758934
-2.341423	-6.065000	11.5249
-0.341423	-6.065000	2.427180
1.658577	-6.065000	0.035264
3.658577	-6.065000	57.0882
5.658577	-6.065000	43.6356
7.658577	-6.065000	34.1303
9.658577	-6.065000	12.2868
11.6586	-6.065000	50.9622
13.6586	-6.065000	59.5318
15.6586	-6.065000	68.5629
17.6586	-6.065000	22.4133
19.6586	-6.065000	26.8584
21.6586	-6.065000	36.6423
23.6586	-6.065000	37.4502
-39.3414	-5.065000	10.8699
-37.3414	-5.065000	0.000000
-35.3414	-5.065000	102.155
-33.3414	-5.065000	0.000000
-31.3414	-5.065000	0.000000
-29.3414	-5.065000	98.7629
-27.3414	-5.065000	67.7267
-25.3414	-5.065000	72.1061
-23.3414	-5.065000	69.8854
-21.3414	-5.065000	54.0344
-19.3414	-5.065000	2.898654
-17.3414	-5.065000	4.613028
-15.3414	-5.065000	98.546
-13.3414	-5.065000	135.339
-11.3414	-5.065000	0.000000
-9.341423	-5.065000	153.277
-7.341423	-5.065000	120.617
-5.341423	-5.065000	50.5944
-3.341423	-5.065000	2.234348
-1.341423	-5.065000	6.677974
0.658577	-5.065000	20.0318
2.658577	-5.065000	1.951098
4.658577	-5.065000	35.9073
6.658577	-5.065000	33.9472
8.658577	-5.065000	4.144729
10.6586	-5.065000	64.763
12.6586	-5.065000	95.2642
14.6586	-5.065000	83.27
16.6586	-5.065000	59.9955
18.6586	-5.065000	34.3145
20.6586	-5.065000	30.8731
22.6586	-5.065000	13.8841
24.6586	-5.065000	22.8922
-38.3414	-4.065000	12.7147
-36.3414	-4.065000	43.8583
-34.3414	-4.065000	0.000000
-32.3414	-4.065000	36.9858
-30.3414	-4.065000	47.6452
-28.3414	-4.065000	40.0629
-26.3414	-4.065000	83.9497
-24.3414	-4.065000	78.5909
-22.3414	-4.065000	56.3822
-20.3414	-4.065000	38.575
-18.3414	-4.065000	13.9201
-16.3414	-4.065000	26.2889
-14.3414	-4.065000	127.479
-12.3414	-4.065000	87.2896
-10.3414	-4.065000	77.7574
-8.341423	-4.065000	163.952
-6.341423	-4.065000	59.8709
-4.341423	-4.065000	3.297627
-2.341423	-4.065000	0.723617
-0.341423	-4.065000	41.1518
1.658577	-4.065000	12.4506
3.658577	-4.065000	5.407218
5.658577	-4.065000	31.2317
7.658577	-4.065000	52.9925
9.658577	-4.065000	64.6212
11.6586	-4.065000	33.49
13.6586	-4.065000	108.358
15.6586	-4.065000	19.9932
17.6586	-4.065000	51.639
19.6586	-4.065000	40.5154
21.6586	-4.065000	40.8946
23.6586	-4.065000	39.3848
-39.3414	-3.065000	13.0033
-37.3414	-3.065000	24.0565
-35.3414	-3.065000	58.0006
-33.3414	-3.065000	49.3108
-31.3414	-3.065000	20.6754
-29.3414	-3.065000	3.949611
-27.3414	-3.065000	18.5506
-25.3414	-3.065000	67.6243
-23.3414	-3.065000	89.3753
-21.3414	-3.065000	67.0198
-19.3414	-3.065000	42.0555
-17.3414	-3.065000	45.6015
-15.3414	-3.065000	73.4504
-13.3414	-3.065000	103.892
-11.3414	-3.065000	36.3834
-9.341423	-3.065000	55.1474
-7.341423	-3.065000	30.1021
-5.341423	-3.065000	58.8709
-3.341423	-3.065000	12.7749
-1.341423	-3.065000	0.000000
0.658577	-3.065000	80.2232
2.658577	-3.065000	3.120623
4.658577	-3.065000	6.014856
6.658577	-3.065000	63.1173
8.658577	-3.065000	60.8465
10.6586	-3.065000	33.4708
12.6586	-3.065000	0.000000
14.6586	-3.065000	91.6732
16.6586	-3.065000	59.8439
18.6586	-3.065000	63.856
20.6586	-3.065000	30.7126
22.6586	-3.065000	0.000000
24.6586	-3.065000	32.3417
-38.3414	-2.065000	23.1819
-36.3414	-2.065000	2.247936
-34.3414	-2.065000	15.5683
-32.3414	-2.065000	8.623542
-30.3414	-2.065000	63.4493
-28.3414	-2.065000	4.505982
-26.3414	-2.065000	75.1055
-24.3414	-2.065000	112.651
-22.3414	-2.065000	58.8899
-20.3414	-2.065000	16.1492
-18.3414	-2.065000	5.736980
-16.3414	-2.065000	32.1746
-14.3414	-2.065000	130.64
-12.3414	-2.065000	56.8926
-10.3414	-2.065000	97.4177
-8.341423	-2.065000	44.3103
-6.341423	-2.065000	45.2026
-4.341423	-2.065000	37.9836
-2.341423	-2.065000	99.2682
-0.341423	-2.065000	0.000000
1.658577	-2.065000	54.9251
3.658577	-2.065000	22.424
5.658577	-2.065000	44.9171
7.658577	-2.065000	62.0962
9.658577	-2.065000	31.3401
11.6586	-2.065000	34.445
13.6586	-2.065000	0.000000
15.6586	-2.065000	88.2639
17.6586	-2.065000	48.2814
19.6586	-2.065000	42.0127
21.6586	-2.065000	4.206266
23.6586	-2.065000	11.9927
-39.3414	-1.065000	2.052992
-37.3414	-1.065000	19.3059
-35.3414	-1.065000	14.5097
-33.3414	-1.065000	58.2332
-31.3414	-1.065000	32.524
-29.3414	-1.065000	3.310087
-27.3414	-1.065000	2.991569
-25.3414	-1.065000	87.7767
-23.3414	-1.065000	46.3915
-21.3414	-1.065000	24.8381
-19.3414	-1.065000	9.279735
-17.3414	-1.065000	36.9843
-15.3414	-1.065000	65.0205
-13.3414	-1.065000	89.9276
-11.3414	-1.065000	84.3075
-9.341423	-1.065000	49.1456
-7.341423	-1.065000	40.9616
-5.341423	-1.065000	107.805
-3.341423	-1.065000	24.6078
-1.341423	-1.065000	0.000000
0.658577	-1.065000	95.3991
2.658577	-1.065000	52.1905
4.658577	-1.065000	22.2063
6.658577	-1.065000	20.3406
8.658577	-1.065000	14.3942
10.6586	-1.065000	32.1243
12.6586	-1.065000	98.5388
14.6586	-1.065000	94.0309
16.6586	-1.065000	61.6867
18.6586	-1.065000	14.8341
20.6586	-1.065000	32.2464
22.6586	-1.065000	10.8934
24.6586	-1.065000	20.9692
-38.3414	-0.065000	5.463399
-36.3414	-0.065000	2.325728
-34.3414	-0.065000	23.6297
-32.3414	-0.065000	15.5796
-30.3414	-0.065000	6.261127
-28.3414	-0.065000	0.000000
-26.3414	-0.065000	13.1587
-24.3414	-0.065000	100.46
-22.3414	-0.065000	16.7913
-20.3414	-0.065000	13.8849
-18.3414	-0.065000	53.9845
-16.3414	-0.065000	43.075
-14.3414	-0.065000	106.562
-12.3414	-0.065000	124.326
-10.3414	-0.065000	76.1663
-8.341423	-0.065000	66.2823
-6.341423	-0.065000	66.7318
-4.341423	-0.065000	102.236
-2.341423	-0.065000	99.5633
-0.341423	-0.065000	0.000000
1.658577	-0.065000	85.8876
3.658577	-0.065000	24.3243
5.658577	-0.065000	66.7986
7.658577	-0.065000	61.6597
9.658577	-0.065000	68.0872
11.6586	-0.065000	149.658
13.6586	-0.065000	0.000000
15.6586	-0.065000	74.7662
17.6586	-0.065000	60.8101
19.6586	-0.065000	10.1953
21.6586	-0.065000	68.6886
23.6586	-0.065000	16.2163
-39.3414	0.935000	5.923692
-37.3414	0.935000	15.1878
-35.3414	0.935000	13.0477
-33.3414	0.935000	34.1491
-31.3414	0.935000	33.8669
-29.3414	0.935000	1.586755
-27.3414	0.935000	3.215814
-25.3414	0.935000	34.7463
-23.3414	0.935000	107.437
-21.3414	0.935000	55.4003
-19.3414	0.935000	59.0564
-17.3414	0.935000	41.1013
-15.3414	0.935000	29.65
-13.3414	0.935000	114.284
-11.3414	0.935000	0.000000
-9.341423	0.935000	68.5581
-7.341423	0.935000	57.7444
-5.341423	0.935000	0.000000
-3.341423	0.935000	54.9434
-1.341423	0.935000	121.377
0.658577	0.935000	82.5374
2.658577	0.935000	25.1398
4.658577	0.935000	57.0901
6.658577	0.935000	0.000000
8.658577	0.935000	88.1624
10.6586	0.935000	109.912
12.6586	0.935000	134.331
14.6586	0.935000	61.4771
16.6586	0.935000	70.8486
18.6586	0.935000	38.1054
20.6586	0.935000	71.0518
22.6586	0.935000	91.5659
24.6586	0.935000	27.5503
-38.3414	1.935000	3.292908
-36.3414	1.935000	29.2259
-34.3414	1.935000	23.006
-32.3414	1.935000	78.6506
-30.3414	1.935000	34.4492
-28.3414	1.935000	5.246453
-26.3414	1.935000	51.9698
-24.3414	1.935000	25.5562
-22.3414	1.935000	97.5885
-20.3414	1.935000	87.8038
-18.3414	1.935000	3.589307
-16.3414	1.935000	2.164004
-14.3414	1.935000	145.003
-12.3414	1.935000	0.000000
-10.3414	1.935000	112.071
-8.341423	1.935000	77.5786
-6.341423	1.935000	70.244
-4.341423	1.935000	0.000000
-2.341423	1.935000	119.303
-0.341423	1.935000	101.296
1.658577	1.935000	17.0096
3.658577	1.935000	35.9851
5.658577	1.935000	82.1176
7.658577	1.935000	72.7319
9.658577	1.935000	0.000000
11.6586	1.935000	100.963
13.6586	1.935000	329.843
15.6586	1.935000	66.9474
17.6586	1.935000	86.8413
19.6586	1.935000	27.5121
21.6586	1.935000	68.3559
23.6586	1.935000	75.7415
-39.3414	2.935000	19.4965
-37.3414	2.935000	48.9664
-35.3414	2.935000	34.5288
-33.3414	2.935000	24.7495
-31.3414	2.935000	41.2831
-29.3414	2.935000	56.7276
-27.3414	2.935000	60.888
-25.3414	2.935000	128.703
-23.3414	2.935000	36.0221
-21.3414	2.935000	113.866
-19.3414	2.935000	8.394238
-17.3414	2.935000	4.064510
-15.3414	2.935000	3.700463
-13.3414	2.935000	37.4621
-11.3414	2.935000	95.7571
-9.341423	2.935000	79.5035
-7.341423	2.935000	58.9678
-5.341423	2.935000	0.000000
-3.341423	2.935000	100.976
-1.341423	2.935000	97.5335
0.658577	2.935000	86.9657
2.658577	2.935000	56.6184
4.658577	2.935000	47.1141
6.658577	2.935000	5.061525
8.658577	2.935000	99.3706
10.6586	2.935000	0.000000
12.6586	2.935000	70.6885
14.6586	2.935000	131.485
16.6586	2.935000	57.9841
18.6586	2.935000	23.6972
20.6586	2.935000	23.8131
22.6586	2.935000	87.6999
24.6586	2.935000	34.1786
-38.3414	3.935000	62.8001
-36.3414	3.935000	62.1741
-34.3414	3.935000	15.818
-32.3414	3.935000	36.2929
-30.3414	3.935000	57.0271
-28.3414	3.935000	112.662
-26.3414	3.935000	87.1579
-24.3414	3.935000	76.2293
-22.3414	3.935000	54.6653
-20.3414	3.935000	93.8683
-18.3414	3.935000	83.6129
-16.3414	3.935000	5.143946
-14.3414	3.935000	0.606455
-12.3414	3.935000	57.7667
-10.3414	3.935000	108.834
-8.341423	3.935000	40.716
-6.341423	3.935000	33.6849
-4.341423	3.935000	17.0737
-2.341423	3.935000	113.644
-0.341423	3.935000	0.000000
1.658577	3.935000	86.7189
3.658577	3.935000	47.6856
5.658577	3.935000	90.2722
7.658577	3.935000	58.6972
9.658577	3.935000	111.938
11.6586	3.935000	82.9652
13.6586	3.935000	94.8972
15.6586	3.935000	72.1074
17.6586	3.935000	89.8597
19.6586	3.935000	0.000000
21.6586	3.935000	68.9223
23.6586	3.935000	52.4331
-39.3414	4.935000	13.9787
-37.3414	4.935000	0.000000
-35.3414	4.935000	142.005
-33.3414	4.935000	31.0707
-31.3414	4.935000	49.2616
-29.3414	4.935000	54.9952
-27.3414	4.935000	44.4543
-25.3414	4.935000	118.462
-23.3414	4.935000	71.9619
-21.3414	4.935000	41.9471
-19.3414	4.935000	99.6865
-17.3414	4.935000	103.677
-15.3414	4.935000	60.7706
-13.3414	4.935000	2.575790
-11.3414	4.935000	56.0644
-9.341423	4.935000	108.32
-7.341423	4.935000	47.8861
-5.341423	4.935000	2.229380
-3.341423	4.935000	21.3582
-1.341423	4.935000	75.9545
0.658577	4.935000	0.000000
2.658577	4.935000	44.3921
4.658577	4.935000	29.4586
6.658577	4.935000	0.000000
8.658577	4.935000	128.078
10.6586	4.935000	100.772
12.6586	4.935000	78.286
14.6586	4.935000	118.618
16.6586	4.935000	78.6255
18.6586	4.935000	0.000000
20.6586	4.935000	57.3048
22.6586	4.935000	0.000000
24.6586	4.935000	25.2937
-38.3414	5.935000	151.609
-36.3414	5.935000	138.378
-34.3414	5.935000	115.086
-32.3414	5.935000	79.6891
-30.3414	5.935000	10.9757
-28.3414	5.935000	1.074365
-26.3414	5.935000	61.2967
-24.3414	5.935000	110.262
-22.3414	5.935000	24.36
-20.3414	5.935000	37.6228
-18.3414	5.935000	99.0267
-16.3414	5.935000	100.273
-14.3414	5.935000	100.281
-12.3414	5.935000	16.6585
-10.3414	5.935000	94.9087
-8.341423	5.935000	78.6246
-6.341423	5.935000	66.8764
-4.341423	5.935000	3.463942
-2.341423	5.935000	80.4419
-0.341423	5.935000	81.9119
1.658577	5.935000	0.000000
3.658577	5.935000	37.712
5.658577	5.935000	36.5856
7.658577	5.935000	65.7152
9.658577	5.935000	101.701
11.6586	5.935000	114.766
13.6586	5.935000	83.0842
15.6586	5.935000	0.000000
17.6586	5.935000	36.7099
19.6586	5.935000	69.3102
21.6586	5.935000	114.823
23.6586	5.935000	80.3773
-39.3414	6.935000	171.371
-37.3414	6.935000	165.256
-35.3414	6.935000	142.282
-33.3414	6.935000	106.554
-31.3414	6.935000	40.1469
-29.3414	6.935000	53.4051
-27.3414	6.935000	16.5621
-25.3414	6.935000	52.8978
-23.3414	6.935000	38.0825
-21.3414	6.935000	37.4669
-19.3414	6.935000	9.390333
-17.3414	6.935000	97.1574
-15.3414	6.935000	135.164
-13.3414	6.935000	87.1615
-11.3414	6.935000	17.3978
-9.341423	6.935000	37.622
-7.341423	6.935000	59.4448
-5.341423	6.935000	26.005
-3.341423	6.935000	52.671
-1.341423	6.935000	0.000000
0.658577	6.935000	0.000000
2.658577	6.935000	45.5905
4.658577	6.935000	13.8915
6.658577	6.935000	69.8475
8.658577	6.935000	57.2357
10.6586	6.935000	0.000000
12.6586	6.935000	111.205
14.6586	6.935000	14.4762
16.6586	6.935000	33.9578
18.6586	6.935000	98.4126
20.6586	6.935000	103.29
22.6586	6.935000	44.1334
24.6586	6.935000	79.769
-38.3414	7.935000	150.224
-36.3414	7.935000	150.984
-34.3414	7.935000	139.641
-32.3414	7.935000	118.667
-30.3414	7.935000	94.6156
-28.3414	7.935000	26.5866
-26.3414	7.935000	39.3693
-24.3414	7.935000	47.2746
-22.3414	7.935000	27.8704
-20.3414	7.935000	60.057
-18.3414	7.935000	81.249
-16.3414	7.935000	95.9419
-14.3414	7.935000	86.9846
-12.3414	7.935000	119.734
-10.3414	7.935000	20.5349
-8.341423	7.935000	21.1456
-6.341423	7.935000	44.8065
-4.341423	7.935000	32.1793
-2.341423	7.935000	0.000000
-0.341423	7.935000	103.51
1.658577	7.935000	72.902
3.658577	7.935000	41.269
5.658577	7.935000	20.8917
7.658577	7.935000	35.8828
9.658577	7.935000	72.789
11.6586	7.935000	92.4632
13.6586	7.935000	63.8254
15.6586	7.935000	41.8085
17.6586	7.935000	52.8823
19.6586	7.935000	4.178961
21.6586	7.935000	0.000000
23.6586	7.935000	77.8936
-39.3414	8.935000	0.000000
-37.3414	8.935000	129.429
-35.3414	8.935000	133.391
-33.3414	8.935000	142.821
-31.3414	8.935000	122.982
-29.3414	8.935000	78.0438
-27.3414	8.935000	58.1817
-25.3414	8.935000	57.4034
-23.3414	8.935000	28.2096
-21.3414	8.935000	37.2275
-19.3414	8.935000	64.9069
-17.3414	8.935000	105.445
-15.3414	8.935000	203.381
-13.3414	8.935000	105.58
-11.3414	8.935000	32.0751
-9.341423	8.935000	22.1336
-7.341423	8.935000	24.3325
-5.341423	8.935000	46.6624
-3.341423	8.935000	53.0215
-1.341423	8.935000	0.000000
0.658577	8.935000	0.000000
2.658577	8.935000	35.7625
4.658577	8.935000	71.9358
6.658577	8.935000	17.4807
8.658577	8.935000	17.1039
10.6586	8.935000	44.8391
12.6586	8.935000	78.2404
14.6586	8.935000	35.967
16.6586	8.935000	9.220925
18.6586	8.935000	3.136029
20.6586	8.935000	1.323420
22.6586	8.935000	5.285926
24.6586	8.935000	36.0912
-38.3414	9.935000	109.509
-36.3414	9.935000	105.256
-34.3414	9.935000	0.000000
-32.3414	9.935000	0.000000
-30.3414	9.935000	118.533
-28.3414	9.935000	83.3847
-26.3414	9.935000	54.3917
-24.3414	9.935000	12.5313
-22.3414	9.935000	49.0227
-20.3414	9.935000	51.0133
-18.3414	9.935000	69.5742
-16.3414	9.935000	0.000000
-14.3414	9.935000	130.606
-12.3414	9.935000	72.1503
-10.3414	9.935000	22.5255
-8.341423	9.935000	24.0957
-6.341423	9.935000	112.643
-4.341423	9.935000	79.2853
-2.341423	9.935000	63.9755
-0.341423	9.935000	121.095
1.658577	9.935000	38.9047
3.658577	9.935000	37.8136
5.658577	9.935000	14.0539
7.658577	9.935000	35.4111
9.658577	9.935000	49.0881
11.6586	9.935000	49.0942
13.6586	9.935000	4.479326
15.6586	9.935000	1.145085
17.6586	9.935000	3.130029
19.6586	9.935000	2.739312
21.6586	9.935000	28.7266
23.6586	9.935000	3.516363
-39.3414	10.935	87.3569
-37.3414	10.935	103.741
-35.3414	10.935	119.156
-33.3414	10.935	86.7445
-31.3414	10.935	153.709
-29.3414	10.935	0.000000
-27.3414	10.935	40.4545
-25.3414	10.935	11.0758
-23.3414	10.935	12.4214
-21.3414	10.935	21.2847
-19.3414	10.935	73.0312
-17.3414	10.935	60.988
-15.3414	10.935	109.198
-13.3414	10.935	79.337
-11.3414	10.935	21.2239
-9.341423	10.935	23.7021
-7.341423	10.935	40.5747
-5.341423	10.935	0.000000
-3.341423	10.935	22.2018
-1.341423	10.935	98.1827
0.658577	10.935	94.3248
2.658577	10.935	57.6676
4.658577	10.935	14.7847
6.658577	10.935	23.5078
8.658577	10.935	10.6617
10.6586	10.935	13.6235
12.6586	10.935	42.383
14.6586	10.935	1.707958
16.6586	10.935	7.812922
18.6586	10.935	6.621336
20.6586	10.935	27.7806
22.6586	10.935	28.3911
24.6586	10.935	13.5505
-38.3414	11.935	114.802
-36.3414	11.935	126.19
-34.3414	11.935	103.175
-32.3414	11.935	106.681
-30.3414	11.935	155.847
-28.3414	11.935	111.77
-26.3414	11.935	33.3215
-24.3414	11.935	3.716593
-22.3414	11.935	45.4413
-20.3414	11.935	34.6498
-18.3414	11.935	43.1985
-16.3414	11.935	45.2236
-14.3414	11.935	123.438
-12.3414	11.935	38.6559
-10.3414	11.935	16.2458
-8.341423	11.935	27.6105
-6.341423	11.935	35.8908
-4.341423	11.935	69.9508
-2.341423	11.935	23.6505
-0.341423	11.935	103.877
1.658577	11.935	67.3333
3.658577	11.935	14.079
5.658577	11.935	29.9618
7.658577	11.935	14.5093
9.658577	11.935	45.5456
11.6586	11.935	84.5003
13.6586	11.935	18.3489
15.6586	11.935	3.788335
17.6586	11.935	16.9448
19.6586	11.935	0.000000
21.6586	11.935	18.9958
23.6586	11.935	40.7056
-39.3414	12.935	123.786
-37.3414	12.935	111.179
-35.3414	12.935	122.457
-33.3414	12.935	121.02
-31.3414	12.935	134.771
-29.3414	12.935	137.14
-27.3414	12.935	19.8589
-25.3414	12.935	2.151908
-23.3414	12.935	66.7266
-21.3414	12.935	58.6442
-19.3414	12.935	107.696
-17.3414	12.935	31.1162
-15.3414	12.935	115.332
-13.3414	12.935	62.0998
-11.3414	12.935	36.324
-9.341423	12.935	25.3892
-7.341423	12.935	37.1422
-5.341423	12.935	44.8363
-3.341423	12.935	66.8753
-1.341423	12.935	60.5956
0.658577	12.935	69.9037
2.658577	12.935	66.4926
4.658577	12.935	10.2987
6.658577	12.935	98.3913
8.658577	12.935	53.2793
10.6586	12.935	83.6256
12.6586	12.935	50.032
14.6586	12.935	2.413325
16.6586	12.935	9.519485
18.6586	12.935	2.736349
20.6586	12.935	2.449578
22.6586	12.935	10.2042
24.6586	12.935	5.658977
-38.3414	13.935	128.012
-36.3414	13.935	130.286
-34.3414	13.935	0.000000
-32.3414	13.935	115.702
-30.3414	13.935	0.000000
-28.3414	13.935	43.781
-26.3414	13.935	28.7797
-24.3414	13.935	26.7339
-22.3414	13.935	62.0789
-20.3414	13.935	25.1973
-18.3414	13.935	81.1693
-16.3414	13.935	44.1842
-14.3414	13.935	116.318
-12.3414	13.935	36.6952
-10.3414	13.935	11.3619
-8.341423	13.935	24.6436
-6.341423	13.935	34.8253
-4.341423	13.935	53.2561
-2.341423	13.935	21.0893
-0.341423	13.935	26.7115
1.658577	13.935	43.2448
3.658577	13.935	12.5873
5.658577	13.935	3.160004
7.658577	13.935	71.8767
9.658577	13.935	69.0807
11.6586	13.935	57.5433
13.6586	13.935	2.665471
15.6586	13.935	4.788635
17.6586	13.935	9.757391
19.6586	13.935	1.758018
21.6586	13.935	2.244640
23.6586	13.935	8.053233
-39.3414	14.935	0.000000
-37.3414	14.935	143.878
-35.3414	14.935	14.3798
-33.3414	14.935	118.765
-31.3414	14.935	132.152
-29.3414	14.935	52.5769
-27.3414	14.935	38.1173
-25.3414	14.935	26.1639
-23.3414	14.935	12.0608
-21.3414	14.935	102.955
-19.3414	14.935	73.0115
-17.3414	14.935	36.6135
-15.3414	14.935	63.4832
-13.3414	14.935	61.6017
-11.3414	14.935	21.3313
-9.341423	14.935	4.758089
-7.341423	14.935	79.5653
-5.341423	14.935	39.4072
-3.341423	14.935	30.4808
-1.341423	14.935	48.367
0.658577	14.935	44.4228
2.658577	14.935	87.6949
4.658577	14.935	3.662745
6.658577	14.935	2.693706
8.658577	14.935	46.6799
10.6586	14.935	61.9521
12.6586	14.935	38.1078
14.6586	14.935	2.601676
16.6586	14.935	1.505810
18.6586	14.935	3.349323
20.6586	14.935	1.922892
22.6586	14.935	3.478949
24.6586	14.935	7.517204
-38.3414	15.935	153.177
-36.3414	15.935	137.586
-34.3414	15.935	117.203
-32.3414	15.935	126.307
-30.3414	15.935	69.5087
-28.3414	15.935	36.3826
-26.3414	15.935	45.3626
-24.3414	15.935	27.1309
-22.3414	15.935	2.944472
-20.3414	15.935	36.7604
-18.3414	15.935	43.3324
-16.3414	15.935	96.8099
-14.3414	15.935	0.000000
-12.3414	15.935	0.000000
-10.3414	15.935	3.994659
-8.341423	15.935	9.421598
-6.341423	15.935	31.8487
-4.341423	15.935	9.427905
-2.341423	15.935	27.2881
-0.341423	15.935	43.0417
1.658577	15.935	84.7288
3.658577	15.935	18.3965
5.658577	15.935	1.297908
7.658577	15.935	2.150186
9.658577	15.935	62.2304
11.6586	15.935	7.203836
13.6586	15.935	8.851349
15.6586	15.935	2.942712
17.6586	15.935	4.268438
19.6586	15.935	0.000000
21.6586	15.935	1.812185
23.6586	15.935	0.000000
24.6586	15.935	2.471809