File: data/derived_data/raman/20170920_Gr-NH2_for_Radisurf/20170920 Gr-NH for Radisurf map 2/D FWHM.txt
#XList		#YList		#IList
-39.3414	-21.065	100.945
-37.3414	-21.065	94.8186
-35.3414	-21.065	89.4694
-33.3414	-21.065	94.1347
-31.3414	-21.065	94.9561
-29.3414	-21.065	86.7078
-27.3414	-21.065	82.7322
-25.3414	-21.065	73.6309
-23.3414	-21.065	37.456
-21.3414	-21.065	89.5212
-19.3414	-21.065	78.0302
-17.3414	-21.065	97.7225
-15.3414	-21.065	96.0828
-13.3414	-21.065	89.5713
-11.3414	-21.065	101.087
-9.341423	-21.065	66.7595
-7.341423	-21.065	93.4833
-5.341423	-21.065	89.728
-3.341423	-21.065	94.305
-1.341423	-21.065	98.0304
0.658577	-21.065	85.069
2.658577	-21.065	83.3332
4.658577	-21.065	92.3767
6.658577	-21.065	65.4373
8.658577	-21.065	44.537
10.6586	-21.065	55.9002
12.6586	-21.065	92.3682
14.6586	-21.065	87.5437
16.6586	-21.065	103.918
18.6586	-21.065	90.8843
20.6586	-21.065	86.9073
22.6586	-21.065	90.9077
24.6586	-21.065	92.925
-38.3414	-20.065	98.0089
-36.3414	-20.065	91.5782
-34.3414	-20.065	92.3945
-32.3414	-20.065	96.9222
-30.3414	-20.065	96.6569
-28.3414	-20.065	74.2272
-26.3414	-20.065	80.1218
-24.3414	-20.065	74.1655
-22.3414	-20.065	88.3039
-20.3414	-20.065	88.2428
-18.3414	-20.065	73.3006
-16.3414	-20.065	98.767
-14.3414	-20.065	95.7885
-12.3414	-20.065	96.5122
-10.3414	-20.065	98.8873
-8.341423	-20.065	93.5612
-6.341423	-20.065	90.5105
-4.341423	-20.065	88.797
-2.341423	-20.065	103.908
-0.341423	-20.065	97.0568
1.658577	-20.065	89.4648
3.658577	-20.065	91.6061
5.658577	-20.065	98.6722
7.658577	-20.065	0.639823
9.658577	-20.065	82.0123
11.6586	-20.065	75.8883
13.6586	-20.065	73.9753
15.6586	-20.065	103.499
17.6586	-20.065	89.353
19.6586	-20.065	97.1939
21.6586	-20.065	96.1897
23.6586	-20.065	1.112661
-39.3414	-19.065	107.895
-37.3414	-19.065	92.2244
-35.3414	-19.065	91.3019
-33.3414	-19.065	90.8976
-31.3414	-19.065	98.9927
-29.3414	-19.065	85.9939
-27.3414	-19.065	85.1475
-25.3414	-19.065	85.0247
-23.3414	-19.065	83.1752
-21.3414	-19.065	85.9337
-19.3414	-19.065	93.0946
-17.3414	-19.065	96.2897
-15.3414	-19.065	97.6851
-13.3414	-19.065	91.1186
-11.3414	-19.065	97.073
-9.341423	-19.065	97.4356
-7.341423	-19.065	85.8439
-5.341423	-19.065	91.4932
-3.341423	-19.065	88.788
-1.341423	-19.065	97.7291
0.658577	-19.065	92.302
2.658577	-19.065	87.398
4.658577	-19.065	95.6793
6.658577	-19.065	99.6619
8.658577	-19.065	101.23
10.6586	-19.065	72.201
12.6586	-19.065	90.4066
14.6586	-19.065	91.5995
16.6586	-19.065	94.6186
18.6586	-19.065	89.9473
20.6586	-19.065	101.365
22.6586	-19.065	99.3447
24.6586	-19.065	89.3964
-38.3414	-18.065	90.4329
-36.3414	-18.065	103.161
-34.3414	-18.065	76.3167
-32.3414	-18.065	96.0761
-30.3414	-18.065	94.4477
-28.3414	-18.065	81.452
-26.3414	-18.065	85.3452
-24.3414	-18.065	82.7969
-22.3414	-18.065	83.4635
-20.3414	-18.065	88.1772
-18.3414	-18.065	81.797
-16.3414	-18.065	95.9411
-14.3414	-18.065	99.0667
-12.3414	-18.065	97.9893
-10.3414	-18.065	86.3054
-8.341423	-18.065	93.3538
-6.341423	-18.065	95.0841
-4.341423	-18.065	90.0864
-2.341423	-18.065	85.7776
-0.341423	-18.065	89.6171
1.658577	-18.065	91.2538
3.658577	-18.065	90.9086
5.658577	-18.065	94.7465
7.658577	-18.065	97.8915
9.658577	-18.065	95.6848
11.6586	-18.065	100.437
13.6586	-18.065	97.1819
15.6586	-18.065	97.2224
17.6586	-18.065	94.7492
19.6586	-18.065	101.272
21.6586	-18.065	97.3136
23.6586	-18.065	98.8852
-39.3414	-17.065	99.0881
-37.3414	-17.065	98.9127
-35.3414	-17.065	93.0307
-33.3414	-17.065	84.7682
-31.3414	-17.065	77.3837
-29.3414	-17.065	81.6714
-27.3414	-17.065	79.1221
-25.3414	-17.065	83.1126
-23.3414	-17.065	87.0816
-21.3414	-17.065	94.75
-19.3414	-17.065	80.9909
-17.3414	-17.065	93.3995
-15.3414	-17.065	98.2953
-13.3414	-17.065	94.7888
-11.3414	-17.065	98.187
-9.341423	-17.065	91.9131
-7.341423	-17.065	92.5242
-5.341423	-17.065	97.7478
-3.341423	-17.065	85.3037
-1.341423	-17.065	95.6879
0.658577	-17.065	93.7918
2.658577	-17.065	95.5409
4.658577	-17.065	90.51
6.658577	-17.065	97.167
8.658577	-17.065	97.3665
10.6586	-17.065	94.0547
12.6586	-17.065	99.8659
14.6586	-17.065	98.4893
16.6586	-17.065	102.396
18.6586	-17.065	84.6594
20.6586	-17.065	103.971
22.6586	-17.065	97.459
24.6586	-17.065	99.9939
-38.3414	-16.065	94.1191
-36.3414	-16.065	87.4033
-34.3414	-16.065	89.5695
-32.3414	-16.065	96.1858
-30.3414	-16.065	81.0869
-28.3414	-16.065	83.7175
-26.3414	-16.065	84.6155
-24.3414	-16.065	85.7532
-22.3414	-16.065	87.3011
-20.3414	-16.065	101.654
-18.3414	-16.065	101.743
-16.3414	-16.065	96.9963
-14.3414	-16.065	99.833
-12.3414	-16.065	97.4494
-10.3414	-16.065	89.6766
-8.341423	-16.065	78.8863
-6.341423	-16.065	98.262
-4.341423	-16.065	97.5201
-2.341423	-16.065	95.7881
-0.341423	-16.065	99.9333
1.658577	-16.065	99.5006
3.658577	-16.065	98.0228
5.658577	-16.065	96.4159
7.658577	-16.065	99.4637
9.658577	-16.065	98.1289
11.6586	-16.065	97.694
13.6586	-16.065	103.449
15.6586	-16.065	98.9825
17.6586	-16.065	101.435
19.6586	-16.065	101.247
21.6586	-16.065	96.7717
23.6586	-16.065	94.628
-39.3414	-15.065	94.4009
-37.3414	-15.065	88.0435
-35.3414	-15.065	94.8932
-33.3414	-15.065	100.939
-31.3414	-15.065	91.8478
-29.3414	-15.065	80.6636
-27.3414	-15.065	87.9734
-25.3414	-15.065	84.2728
-23.3414	-15.065	79.7427
-21.3414	-15.065	87.46
-19.3414	-15.065	98.9794
-17.3414	-15.065	97.7194
-15.3414	-15.065	97.0852
-13.3414	-15.065	99.1581
-11.3414	-15.065	92.2751
-9.341423	-15.065	80.8137
-7.341423	-15.065	80.7231
-5.341423	-15.065	91.4628
-3.341423	-15.065	97.0225
-1.341423	-15.065	91.6186
0.658577	-15.065	94.6386
2.658577	-15.065	95.296
4.658577	-15.065	101.874
6.658577	-15.065	97.6835
8.658577	-15.065	100.058
10.6586	-15.065	95.4308
12.6586	-15.065	100.075
14.6586	-15.065	98.2452
16.6586	-15.065	87.5223
18.6586	-15.065	104.291
20.6586	-15.065	97.036
22.6586	-15.065	95.5313
24.6586	-15.065	105.508
-38.3414	-14.065	90.9353
-36.3414	-14.065	97.1459
-34.3414	-14.065	96.8738
-32.3414	-14.065	99.0994
-30.3414	-14.065	90.0384
-28.3414	-14.065	87.7828
-26.3414	-14.065	89.3885
-24.3414	-14.065	77.8901
-22.3414	-14.065	79.9677
-20.3414	-14.065	95.6028
-18.3414	-14.065	98.6613
-16.3414	-14.065	97.2166
-14.3414	-14.065	98.9727
-12.3414	-14.065	100.572
-10.3414	-14.065	81.3838
-8.341423	-14.065	78.2617
-6.341423	-14.065	81.1431
-4.341423	-14.065	85.352
-2.341423	-14.065	91.4158
-0.341423	-14.065	93.6098
1.658577	-14.065	100.511
3.658577	-14.065	98.8335
5.658577	-14.065	99.009
7.658577	-14.065	98.4298
9.658577	-14.065	98.3935
11.6586	-14.065	120.283
13.6586	-14.065	96.9765
15.6586	-14.065	92.3893
17.6586	-14.065	103.641
19.6586	-14.065	99.1153
21.6586	-14.065	91.7109
23.6586	-14.065	92.7095
-39.3414	-13.065	89.0473
-37.3414	-13.065	98.4533
-35.3414	-13.065	97.934
-33.3414	-13.065	96.7953
-31.3414	-13.065	95.5174
-29.3414	-13.065	94.1001
-27.3414	-13.065	87.8483
-25.3414	-13.065	81.5235
-23.3414	-13.065	85.2896
-21.3414	-13.065	92.0612
-19.3414	-13.065	91.2517
-17.3414	-13.065	91.9522
-15.3414	-13.065	101.423
-13.3414	-13.065	91.5943
-11.3414	-13.065	81.7167
-9.341423	-13.065	84.3472
-7.341423	-13.065	88.0735
-5.341423	-13.065	86.799
-3.341423	-13.065	85.4271
-1.341423	-13.065	96.5648
0.658577	-13.065	97.3969
2.658577	-13.065	90.6352
4.658577	-13.065	96.8492
6.658577	-13.065	98.3665
8.658577	-13.065	104.212
10.6586	-13.065	108.514
12.6586	-13.065	92.291
14.6586	-13.065	95.469
16.6586	-13.065	96.533
18.6586	-13.065	104.054
20.6586	-13.065	99.8287
22.6586	-13.065	99.9934
24.6586	-13.065	96.3583
-38.3414	-12.065	96.9632
-36.3414	-12.065	97.7715
-34.3414	-12.065	98.3586
-32.3414	-12.065	94.9778
-30.3414	-12.065	95.7645
-28.3414	-12.065	90.4912
-26.3414	-12.065	83.6345
-24.3414	-12.065	78.2913
-22.3414	-12.065	84.156
-20.3414	-12.065	105.056
-18.3414	-12.065	89.4085
-16.3414	-12.065	94.5178
-14.3414	-12.065	99.5418
-12.3414	-12.065	82.9223
-10.3414	-12.065	78.7221
-8.341423	-12.065	84.9424
-6.341423	-12.065	98.3408
-4.341423	-12.065	83.4636
-2.341423	-12.065	102.351
-0.341423	-12.065	99.0361
1.658577	-12.065	94.0597
3.658577	-12.065	96.4571
5.658577	-12.065	96.6784
7.658577	-12.065	99.51
9.658577	-12.065	103.57
11.6586	-12.065	71.434
13.6586	-12.065	84.11
15.6586	-12.065	81.0647
17.6586	-12.065	97.5037
19.6586	-12.065	96.4007
21.6586	-12.065	99.3711
23.6586	-12.065	102.508
-39.3414	-11.065	97.7976
-37.3414	-11.065	97.7035
-35.3414	-11.065	99.0634
-33.3414	-11.065	96.4753
-31.3414	-11.065	96.015
-29.3414	-11.065	95.6352
-27.3414	-11.065	96.5831
-25.3414	-11.065	92.8538
-23.3414	-11.065	83.6869
-21.3414	-11.065	97.3883
-19.3414	-11.065	98.9121
-17.3414	-11.065	90.1675
-15.3414	-11.065	97.1628
-13.3414	-11.065	87.5588
-11.3414	-11.065	77.0516
-9.341423	-11.065	79.4167
-7.341423	-11.065	103.214
-5.341423	-11.065	90.6043
-3.341423	-11.065	95.2982
-1.341423	-11.065	100.22
0.658577	-11.065	94.4582
2.658577	-11.065	97.5715
4.658577	-11.065	123.633
6.658577	-11.065	95.8767
8.658577	-11.065	95.9016
10.6586	-11.065	0.639823
12.6586	-11.065	116.093
14.6586	-11.065	84.2817
16.6586	-11.065	92.2539
18.6586	-11.065	92.563
20.6586	-11.065	103.355
22.6586	-11.065	89.9604
24.6586	-11.065	100.651
-38.3414	-10.065	97.1176
-36.3414	-10.065	96.4793
-34.3414	-10.065	99.7783
-32.3414	-10.065	98.3257
-30.3414	-10.065	97.3006
-28.3414	-10.065	95.2528
-26.3414	-10.065	99.1476
-24.3414	-10.065	96.2287
-22.3414	-10.065	87.3194
-20.3414	-10.065	100.95
-18.3414	-10.065	87.2417
-16.3414	-10.065	92.5553
-14.3414	-10.065	94.5629
-12.3414	-10.065	90.8026
-10.3414	-10.065	97.7916
-8.341423	-10.065	82.3072
-6.341423	-10.065	94.6758
-4.341423	-10.065	91.5153
-2.341423	-10.065	99.9443
-0.341423	-10.065	94.8124
1.658577	-10.065	98.2479
3.658577	-10.065	102.356
5.658577	-10.065	98.4563
7.658577	-10.065	93.535
9.658577	-10.065	67.0009
11.6586	-10.065	25.5755
13.6586	-10.065	105.122
15.6586	-10.065	100.824
17.6586	-10.065	99.8096
19.6586	-10.065	95.8812
21.6586	-10.065	104.093
23.6586	-10.065	99.0635
-39.3414	-9.065000	99.2287
-37.3414	-9.065000	96.5666
-35.3414	-9.065000	94.4824
-33.3414	-9.065000	99.8099
-31.3414	-9.065000	96.1065
-29.3414	-9.065000	96.6886
-27.3414	-9.065000	95.0474
-25.3414	-9.065000	95.9252
-23.3414	-9.065000	86.6752
-21.3414	-9.065000	87.359
-19.3414	-9.065000	95.7481
-17.3414	-9.065000	89.7662
-15.3414	-9.065000	97.6944
-13.3414	-9.065000	89.4804
-11.3414	-9.065000	100.596
-9.341423	-9.065000	96.6114
-7.341423	-9.065000	85.4776
-5.341423	-9.065000	99.2558
-3.341423	-9.065000	94.9672
-1.341423	-9.065000	93.1459
0.658577	-9.065000	95.2397
2.658577	-9.065000	72.5664
4.658577	-9.065000	90.9366
6.658577	-9.065000	86.0685
8.658577	-9.065000	93.3363
10.6586	-9.065000	0.639823
12.6586	-9.065000	102.993
14.6586	-9.065000	94.1966
16.6586	-9.065000	99.8758
18.6586	-9.065000	92.2831
20.6586	-9.065000	96.1173
22.6586	-9.065000	104.902
24.6586	-9.065000	106.45
-38.3414	-8.065000	94.6527
-36.3414	-8.065000	98.6999
-34.3414	-8.065000	96.6947
-32.3414	-8.065000	99.4189
-30.3414	-8.065000	98.0952
-28.3414	-8.065000	95.5454
-26.3414	-8.065000	101.212
-24.3414	-8.065000	103.682
-22.3414	-8.065000	118.767
-20.3414	-8.065000	103.965
-18.3414	-8.065000	97.135
-16.3414	-8.065000	94.7244
-14.3414	-8.065000	90.5217
-12.3414	-8.065000	93.6612
-10.3414	-8.065000	96.8797
-8.341423	-8.065000	88.3712
-6.341423	-8.065000	73.3144
-4.341423	-8.065000	94.6797
-2.341423	-8.065000	96.7659
-0.341423	-8.065000	91.1458
1.658577	-8.065000	97.3365
3.658577	-8.065000	95.8813
5.658577	-8.065000	86.5967
7.658577	-8.065000	91.2149
9.658577	-8.065000	19.7359
11.6586	-8.065000	43.527
13.6586	-8.065000	106.509
15.6586	-8.065000	98.3003
17.6586	-8.065000	104.105
19.6586	-8.065000	96.4741
21.6586	-8.065000	78.4831
23.6586	-8.065000	92.6138
-39.3414	-7.065000	94.7495
-37.3414	-7.065000	99.1553
-35.3414	-7.065000	96.0122
-33.3414	-7.065000	98.2899
-31.3414	-7.065000	96.3434
-29.3414	-7.065000	95.688
-27.3414	-7.065000	96.2568
-25.3414	-7.065000	99.3825
-23.3414	-7.065000	91.1232
-21.3414	-7.065000	102.356
-19.3414	-7.065000	101.41
-17.3414	-7.065000	98.7053
-15.3414	-7.065000	93.9832
-13.3414	-7.065000	88.3419
-11.3414	-7.065000	92.733
-9.341423	-7.065000	100.192
-7.341423	-7.065000	93.8512
-5.341423	-7.065000	87.6265
-3.341423	-7.065000	93.7471
-1.341423	-7.065000	77.4477
0.658577	-7.065000	85.6008
2.658577	-7.065000	102.536
4.658577	-7.065000	79.0318
6.658577	-7.065000	89.5494
8.658577	-7.065000	63.2088
10.6586	-7.065000	101.693
12.6586	-7.065000	99.1472
14.6586	-7.065000	93.443
16.6586	-7.065000	98.015
18.6586	-7.065000	99.1188
20.6586	-7.065000	108.32
22.6586	-7.065000	99.459
24.6586	-7.065000	96.6043
-38.3414	-6.065000	97.4735
-36.3414	-6.065000	96.6921
-34.3414	-6.065000	98.4302
-32.3414	-6.065000	98.8682
-30.3414	-6.065000	95.9066
-28.3414	-6.065000	97.2603
-26.3414	-6.065000	95.184
-24.3414	-6.065000	97.1169
-22.3414	-6.065000	90.7671
-20.3414	-6.065000	96.0233
-18.3414	-6.065000	84.6833
-16.3414	-6.065000	97.9003
-14.3414	-6.065000	98.8561
-12.3414	-6.065000	91.8817
-10.3414	-6.065000	95.3495
-8.341423	-6.065000	106.451
-6.341423	-6.065000	99.5856
-4.341423	-6.065000	49.4837
-2.341423	-6.065000	89.7789
-0.341423	-6.065000	63.1327
1.658577	-6.065000	76.369
3.658577	-6.065000	84.0117
5.658577	-6.065000	82.1335
7.658577	-6.065000	91.7644
9.658577	-6.065000	93.3667
11.6586	-6.065000	99.0146
13.6586	-6.065000	91.0753
15.6586	-6.065000	100.266
17.6586	-6.065000	103.815
19.6586	-6.065000	96.4471
21.6586	-6.065000	101.335
23.6586	-6.065000	91.6073
-39.3414	-5.065000	90.4413
-37.3414	-5.065000	95.0276
-35.3414	-5.065000	94.5463
-33.3414	-5.065000	97.8896
-31.3414	-5.065000	98.0607
-29.3414	-5.065000	96.8037
-27.3414	-5.065000	100.968
-25.3414	-5.065000	94.859
-23.3414	-5.065000	98.9554
-21.3414	-5.065000	95.207
-19.3414	-5.065000	85.6385
-17.3414	-5.065000	112.93
-15.3414	-5.065000	97.7341
-13.3414	-5.065000	99.7684
-11.3414	-5.065000	102.238
-9.341423	-5.065000	100.615
-7.341423	-5.065000	99.9539
-5.341423	-5.065000	102.299
-3.341423	-5.065000	28.8277
-1.341423	-5.065000	101.09
0.658577	-5.065000	92.0748
2.658577	-5.065000	93.8372
4.658577	-5.065000	88.5241
6.658577	-5.065000	96.0858
8.658577	-5.065000	93.591
10.6586	-5.065000	100.625
12.6586	-5.065000	99.1197
14.6586	-5.065000	96.5648
16.6586	-5.065000	96.9091
18.6586	-5.065000	95.9738
20.6586	-5.065000	100.74
22.6586	-5.065000	89.2581
24.6586	-5.065000	86.7654
-38.3414	-4.065000	95.8826
-36.3414	-4.065000	89.9876
-34.3414	-4.065000	97.5242
-32.3414	-4.065000	97.6902
-30.3414	-4.065000	97.6469
-28.3414	-4.065000	97.3793
-26.3414	-4.065000	97.2934
-24.3414	-4.065000	99.6844
-22.3414	-4.065000	90.4364
-20.3414	-4.065000	97.9249
-18.3414	-4.065000	104.497
-16.3414	-4.065000	103.28
-14.3414	-4.065000	97.4332
-12.3414	-4.065000	96.0129
-10.3414	-4.065000	101.192
-8.341423	-4.065000	95.1653
-6.341423	-4.065000	98.9746
-4.341423	-4.065000	103.906
-2.341423	-4.065000	73.8904
-0.341423	-4.065000	95.2808
1.658577	-4.065000	84.5249
3.658577	-4.065000	113.525
5.658577	-4.065000	94.7704
7.658577	-4.065000	95.029
9.658577	-4.065000	92.3228
11.6586	-4.065000	99.2963
13.6586	-4.065000	97.9069
15.6586	-4.065000	102.763
17.6586	-4.065000	84.8897
19.6586	-4.065000	91.1125
21.6586	-4.065000	92.871
23.6586	-4.065000	97.0077
-39.3414	-3.065000	0.639823
-37.3414	-3.065000	89.9779
-35.3414	-3.065000	95.825
-33.3414	-3.065000	96.0758
-31.3414	-3.065000	104.099
-29.3414	-3.065000	97.981
-27.3414	-3.065000	97.2761
-25.3414	-3.065000	96.3076
-23.3414	-3.065000	95.1322
-21.3414	-3.065000	86.3837
-19.3414	-3.065000	96.9773
-17.3414	-3.065000	103.069
-15.3414	-3.065000	102.859
-13.3414	-3.065000	98.3508
-11.3414	-3.065000	94.14
-9.341423	-3.065000	98.1819
-7.341423	-3.065000	96.2741
-5.341423	-3.065000	100.252
-3.341423	-3.065000	90.6265
-1.341423	-3.065000	95.506
0.658577	-3.065000	90.3969
2.658577	-3.065000	117.686
4.658577	-3.065000	94.4807
6.658577	-3.065000	98.3927
8.658577	-3.065000	97.3333
10.6586	-3.065000	97.7662
12.6586	-3.065000	100.627
14.6586	-3.065000	102.023
16.6586	-3.065000	87.2517
18.6586	-3.065000	87.9008
20.6586	-3.065000	90.9791
22.6586	-3.065000	97.975
24.6586	-3.065000	97.5197
-38.3414	-2.065000	97.4611
-36.3414	-2.065000	93.2509
-34.3414	-2.065000	97.7449
-32.3414	-2.065000	97.0886
-30.3414	-2.065000	96.5757
-28.3414	-2.065000	9.464334
-26.3414	-2.065000	94.7193
-24.3414	-2.065000	100.193
-22.3414	-2.065000	90.0664
-20.3414	-2.065000	93.7931
-18.3414	-2.065000	99.2971
-16.3414	-2.065000	95.2807
-14.3414	-2.065000	97.6101
-12.3414	-2.065000	96.0057
-10.3414	-2.065000	102.949
-8.341423	-2.065000	99.2417
-6.341423	-2.065000	97.7748
-4.341423	-2.065000	105.227
-2.341423	-2.065000	93.2838
-0.341423	-2.065000	93.5042
1.658577	-2.065000	94.3446
3.658577	-2.065000	87.9671
5.658577	-2.065000	94.2005
7.658577	-2.065000	101.448
9.658577	-2.065000	98.0351
11.6586	-2.065000	85.7744
13.6586	-2.065000	100.204
15.6586	-2.065000	93.4727
17.6586	-2.065000	83.3965
19.6586	-2.065000	91.1555
21.6586	-2.065000	102.94
23.6586	-2.065000	76.3654
-39.3414	-1.065000	82.7013
-37.3414	-1.065000	102.734
-35.3414	-1.065000	102.234
-33.3414	-1.065000	103.009
-31.3414	-1.065000	97.2212
-29.3414	-1.065000	89.4526
-27.3414	-1.065000	88.9728
-25.3414	-1.065000	94.9273
-23.3414	-1.065000	103.078
-21.3414	-1.065000	98.9811
-19.3414	-1.065000	94.8428
-17.3414	-1.065000	106.048
-15.3414	-1.065000	100.513
-13.3414	-1.065000	98.086
-11.3414	-1.065000	101.565
-9.341423	-1.065000	100.556
-7.341423	-1.065000	92.5504
-5.341423	-1.065000	97.4791
-3.341423	-1.065000	102.212
-1.341423	-1.065000	91.086
0.658577	-1.065000	92.8388
2.658577	-1.065000	99.5692
4.658577	-1.065000	87.299
6.658577	-1.065000	96.218
8.658577	-1.065000	101.192
10.6586	-1.065000	83.0266
12.6586	-1.065000	99.3391
14.6586	-1.065000	98.3089
16.6586	-1.065000	85.9267
18.6586	-1.065000	93.4731
20.6586	-1.065000	94.0245
22.6586	-1.065000	85.3837
24.6586	-1.065000	81.1744
-38.3414	-0.065000	73.5516
-36.3414	-0.065000	109.178
-34.3414	-0.065000	108.493
-32.3414	-0.065000	107.307
-30.3414	-0.065000	107.766
-28.3414	-0.065000	1.720088
-26.3414	-0.065000	94.8062
-24.3414	-0.065000	97.2151
-22.3414	-0.065000	94.7226
-20.3414	-0.065000	99.5883
-18.3414	-0.065000	98.733
-16.3414	-0.065000	98.2002
-14.3414	-0.065000	98.944
-12.3414	-0.065000	100.722
-10.3414	-0.065000	98.8213
-8.341423	-0.065000	102.769
-6.341423	-0.065000	94.4356
-4.341423	-0.065000	102.071
-2.341423	-0.065000	90.7459
-0.341423	-0.065000	91.3807
1.658577	-0.065000	90.69
3.658577	-0.065000	84.1399
5.658577	-0.065000	98.3051
7.658577	-0.065000	98.4503
9.658577	-0.065000	98.2592
11.6586	-0.065000	101.406
13.6586	-0.065000	96.7946
15.6586	-0.065000	91.7942
17.6586	-0.065000	89.8658
19.6586	-0.065000	88.5819
21.6586	-0.065000	94.6302
23.6586	-0.065000	75.9038
-39.3414	0.935000	132.938
-37.3414	0.935000	223.29
-35.3414	0.935000	105.371
-33.3414	0.935000	96.3995
-31.3414	0.935000	91.0968
-29.3414	0.935000	74.94
-27.3414	0.935000	89.4859
-25.3414	0.935000	101.849
-23.3414	0.935000	100.392
-21.3414	0.935000	93.6136
-19.3414	0.935000	96.38
-17.3414	0.935000	101.99
-15.3414	0.935000	99.8105
-13.3414	0.935000	97.5365
-11.3414	0.935000	99.5873
-9.341423	0.935000	96.912
-7.341423	0.935000	96.3255
-5.341423	0.935000	101.578
-3.341423	0.935000	90.2735
-1.341423	0.935000	95.1166
0.658577	0.935000	89.3763
2.658577	0.935000	86.5924
4.658577	0.935000	92.5365
6.658577	0.935000	100.625
8.658577	0.935000	99.0354
10.6586	0.935000	96.6212
12.6586	0.935000	97.445
14.6586	0.935000	100.746
16.6586	0.935000	93.2368
18.6586	0.935000	95.322
20.6586	0.935000	90.4796
22.6586	0.935000	92.6432
24.6586	0.935000	85.2455
-38.3414	1.935000	124.203
-36.3414	1.935000	102.341
-34.3414	1.935000	105.664
-32.3414	1.935000	92.6377
-30.3414	1.935000	83.2401
-28.3414	1.935000	73.2798
-26.3414	1.935000	88.942
-24.3414	1.935000	93.3897
-22.3414	1.935000	97.2319
-20.3414	1.935000	96.6761
-18.3414	1.935000	108.546
-16.3414	1.935000	149.861
-14.3414	1.935000	98.6938
-12.3414	1.935000	98.0807
-10.3414	1.935000	98.2216
-8.341423	1.935000	92.8533
-6.341423	1.935000	92.9798
-4.341423	1.935000	98.453
-2.341423	1.935000	95.2951
-0.341423	1.935000	91.5181
1.658577	1.935000	85.0849
3.658577	1.935000	93.0659
5.658577	1.935000	97.7115
7.658577	1.935000	99.1025
9.658577	1.935000	95.2192
11.6586	1.935000	92.2801
13.6586	1.935000	96.433
15.6586	1.935000	89.884
17.6586	1.935000	91.7239
19.6586	1.935000	89.6799
21.6586	1.935000	85.7385
23.6586	1.935000	96.3013
-39.3414	2.935000	98.6948
-37.3414	2.935000	99.8291
-35.3414	2.935000	99.8284
-33.3414	2.935000	95.6413
-31.3414	2.935000	77.9893
-29.3414	2.935000	89.8435
-27.3414	2.935000	102.904
-25.3414	2.935000	103.974
-23.3414	2.935000	92.3817
-21.3414	2.935000	95.7678
-19.3414	2.935000	97.5215
-17.3414	2.935000	69.7613
-15.3414	2.935000	89.7328
-13.3414	2.935000	100.836
-11.3414	2.935000	98.576
-9.341423	2.935000	101.18
-7.341423	2.935000	96.4129
-5.341423	2.935000	97.4634
-3.341423	2.935000	97.1455
-1.341423	2.935000	93.7152
0.658577	2.935000	92.9902
2.658577	2.935000	89.0075
4.658577	2.935000	100.477
6.658577	2.935000	91.5373
8.658577	2.935000	95.8884
10.6586	2.935000	96.3014
12.6586	2.935000	91.1166
14.6586	2.935000	97.4623
16.6586	2.935000	89.4902
18.6586	2.935000	92.3926
20.6586	2.935000	88.5331
22.6586	2.935000	90.5229
24.6586	2.935000	93.6739
-38.3414	3.935000	96.5351
-36.3414	3.935000	99.7566
-34.3414	3.935000	107.434
-32.3414	3.935000	90.514
-30.3414	3.935000	88.4337
-28.3414	3.935000	102.498
-26.3414	3.935000	96.9174
-24.3414	3.935000	97.5526
-22.3414	3.935000	93.8096
-20.3414	3.935000	99.5076
-18.3414	3.935000	97.9713
-16.3414	3.935000	85.405
-14.3414	3.935000	115.758
-12.3414	3.935000	95.6551
-10.3414	3.935000	101.944
-8.341423	3.935000	103.786
-6.341423	3.935000	97.438
-4.341423	3.935000	96.5107
-2.341423	3.935000	96.1782
-0.341423	3.935000	91.4381
1.658577	3.935000	93.7117
3.658577	3.935000	97.874
5.658577	3.935000	96.1555
7.658577	3.935000	100.103
9.658577	3.935000	95.4195
11.6586	3.935000	93.8301
13.6586	3.935000	98.5894
15.6586	3.935000	95.1235
17.6586	3.935000	93.8218
19.6586	3.935000	94.8598
21.6586	3.935000	93.8331
23.6586	3.935000	101.443
-39.3414	4.935000	93
-37.3414	4.935000	95.7637
-35.3414	4.935000	97.9667
-33.3414	4.935000	97.5963
-31.3414	4.935000	94.4488
-29.3414	4.935000	96.8663
-27.3414	4.935000	103.169
-25.3414	4.935000	100.956
-23.3414	4.935000	95.612
-21.3414	4.935000	97.8387
-19.3414	4.935000	95.0256
-17.3414	4.935000	94.2757
-15.3414	4.935000	98.233
-13.3414	4.935000	106.54
-11.3414	4.935000	92.6025
-9.341423	4.935000	101.054
-7.341423	4.935000	101.508
-5.341423	4.935000	104.88
-3.341423	4.935000	90.3942
-1.341423	4.935000	95.2158
0.658577	4.935000	92.3092
2.658577	4.935000	97.6135
4.658577	4.935000	95.0477
6.658577	4.935000	100.382
8.658577	4.935000	99.7564
10.6586	4.935000	94.6498
12.6586	4.935000	100.877
14.6586	4.935000	95.4761
16.6586	4.935000	89.4784
18.6586	4.935000	95.0179
20.6586	4.935000	99.0285
22.6586	4.935000	100.28
24.6586	4.935000	94.261
-38.3414	5.935000	95.3336
-36.3414	5.935000	95.3532
-34.3414	5.935000	96.0313
-32.3414	5.935000	94.679
-30.3414	5.935000	99.1367
-28.3414	5.935000	88.7367
-26.3414	5.935000	99.5828
-24.3414	5.935000	97.8264
-22.3414	5.935000	85.6475
-20.3414	5.935000	93.4921
-18.3414	5.935000	95.0299
-16.3414	5.935000	92.0924
-14.3414	5.935000	101.403
-12.3414	5.935000	89.9597
-10.3414	5.935000	98.456
-8.341423	5.935000	105.856
-6.341423	5.935000	102.845
-4.341423	5.935000	96.1584
-2.341423	5.935000	94.1664
-0.341423	5.935000	92.9985
1.658577	5.935000	92.7947
3.658577	5.935000	97.3524
5.658577	5.935000	94.3641
7.658577	5.935000	94.1415
9.658577	5.935000	99.395
11.6586	5.935000	98.2036
13.6586	5.935000	97.2869
15.6586	5.935000	95.5782
17.6586	5.935000	93.1172
19.6586	5.935000	92.5138
21.6586	5.935000	97.7441
23.6586	5.935000	98.6524
-39.3414	6.935000	99.0621
-37.3414	6.935000	98.7999
-35.3414	6.935000	96.3803
-33.3414	6.935000	94.9691
-31.3414	6.935000	92.3251
-29.3414	6.935000	94.0347
-27.3414	6.935000	96.0733
-25.3414	6.935000	100.465
-23.3414	6.935000	94.0601
-21.3414	6.935000	87.4742
-19.3414	6.935000	94.8342
-17.3414	6.935000	93.3697
-15.3414	6.935000	99.5022
-13.3414	6.935000	96.4132
-11.3414	6.935000	73.369
-9.341423	6.935000	78.9312
-7.341423	6.935000	96.6468
-5.341423	6.935000	99.1315
-3.341423	6.935000	92.1648
-1.341423	6.935000	93.578
0.658577	6.935000	91.7873
2.658577	6.935000	97.2216
4.658577	6.935000	95.3054
6.658577	6.935000	98.3866
8.658577	6.935000	93.8216
10.6586	6.935000	98.7425
12.6586	6.935000	96.4656
14.6586	6.935000	96.6458
16.6586	6.935000	95.2882
18.6586	6.935000	93.9145
20.6586	6.935000	98.4709
22.6586	6.935000	98.083
24.6586	6.935000	93.8623
-38.3414	7.935000	100.264
-36.3414	7.935000	97.2434
-34.3414	7.935000	97.0542
-32.3414	7.935000	94.5817
-30.3414	7.935000	95.6953
-28.3414	7.935000	97.6757
-26.3414	7.935000	92.5931
-24.3414	7.935000	94.6758
-22.3414	7.935000	90.7594
-20.3414	7.935000	93.6502
-18.3414	7.935000	93.2274
-16.3414	7.935000	95.0944
-14.3414	7.935000	96.7349
-12.3414	7.935000	99.2474
-10.3414	7.935000	60.6968
-8.341423	7.935000	67.291
-6.341423	7.935000	95.7607
-4.341423	7.935000	93.9896
-2.341423	7.935000	92.4536
-0.341423	7.935000	90.5319
1.658577	7.935000	100.361
3.658577	7.935000	98.127
5.658577	7.935000	100.89
7.658577	7.935000	84.3922
9.658577	7.935000	98.9184
11.6586	7.935000	97.6982
13.6586	7.935000	95.1129
15.6586	7.935000	93.8316
17.6586	7.935000	98.985
19.6586	7.935000	108.016
21.6586	7.935000	95.6415
23.6586	7.935000	95.8504
-39.3414	8.935000	98.5676
-37.3414	8.935000	99.4811
-35.3414	8.935000	97.4605
-33.3414	8.935000	96.4989
-31.3414	8.935000	97.4988
-29.3414	8.935000	95.1578
-27.3414	8.935000	93.329
-25.3414	8.935000	98.8669
-23.3414	8.935000	88.3523
-21.3414	8.935000	86.3762
-19.3414	8.935000	97.2075
-17.3414	8.935000	97.1781
-15.3414	8.935000	100.508
-13.3414	8.935000	98.4673
-11.3414	8.935000	85.4843
-9.341423	8.935000	62.9166
-7.341423	8.935000	67.3846
-5.341423	8.935000	89.3802
-3.341423	8.935000	90.7479
-1.341423	8.935000	94.0898
0.658577	8.935000	98.4581
2.658577	8.935000	101.41
4.658577	8.935000	99.0587
6.658577	8.935000	103.947
8.658577	8.935000	90.7832
10.6586	8.935000	96.8148
12.6586	8.935000	97.962
14.6586	8.935000	96.0629
16.6586	8.935000	105.413
18.6586	8.935000	94.793
20.6586	8.935000	97.4765
22.6586	8.935000	93.6769
24.6586	8.935000	94.404
-38.3414	9.935000	98.4013
-36.3414	9.935000	95.0745
-34.3414	9.935000	94.2923
-32.3414	9.935000	96.4556
-30.3414	9.935000	93.2891
-28.3414	9.935000	98.6062
-26.3414	9.935000	100.542
-24.3414	9.935000	95.4979
-22.3414	9.935000	82.7657
-20.3414	9.935000	91.0436
-18.3414	9.935000	94.4664
-16.3414	9.935000	100.081
-14.3414	9.935000	97.7195
-12.3414	9.935000	98.5517
-10.3414	9.935000	63.6992
-8.341423	9.935000	59.6416
-6.341423	9.935000	97.6386
-4.341423	9.935000	98.4192
-2.341423	9.935000	98.4518
-0.341423	9.935000	96.8835
1.658577	9.935000	94.8345
3.658577	9.935000	104.175
5.658577	9.935000	104.582
7.658577	9.935000	96.433
9.658577	9.935000	89.6905
11.6586	9.935000	93.3293
13.6586	9.935000	95.8195
15.6586	9.935000	99.1012
17.6586	9.935000	84.8291
19.6586	9.935000	1.040953
21.6586	9.935000	94.6007
23.6586	9.935000	86.7958
-39.3414	10.935	99.9083
-37.3414	10.935	96.2968
-35.3414	10.935	96.6094
-33.3414	10.935	96.4615
-31.3414	10.935	98.8795
-29.3414	10.935	95.589
-27.3414	10.935	97.3774
-25.3414	10.935	100.315
-23.3414	10.935	89.0225
-21.3414	10.935	84.5537
-19.3414	10.935	99.1276
-17.3414	10.935	96.7503
-15.3414	10.935	98.6877
-13.3414	10.935	98.7392
-11.3414	10.935	87.165
-9.341423	10.935	63.9399
-7.341423	10.935	74.1209
-5.341423	10.935	98.5572
-3.341423	10.935	92.1973
-1.341423	10.935	93.8849
0.658577	10.935	103.072
2.658577	10.935	98.1538
4.658577	10.935	102.657
6.658577	10.935	103.198
8.658577	10.935	98.7364
10.6586	10.935	95.1882
12.6586	10.935	97.2102
14.6586	10.935	33.7709
16.6586	10.935	0.639823
18.6586	10.935	3.441494
20.6586	10.935	95.0316
22.6586	10.935	93.1296
24.6586	10.935	90.5986
-38.3414	11.935	96.1317
-36.3414	11.935	96.8197
-34.3414	11.935	95.4664
-32.3414	11.935	97.9833
-30.3414	11.935	98.6684
-28.3414	11.935	95.9156
-26.3414	11.935	89.765
-24.3414	11.935	85.5938
-22.3414	11.935	98.6257
-20.3414	11.935	94.6107
-18.3414	11.935	94.2259
-16.3414	11.935	86.1645
-14.3414	11.935	96.2058
-12.3414	11.935	99.8096
-10.3414	11.935	81.1756
-8.341423	11.935	67.4379
-6.341423	11.935	77.2933
-4.341423	11.935	91.7372
-2.341423	11.935	94.7927
-0.341423	11.935	95.5427
1.658577	11.935	99.5142
3.658577	11.935	107.375
5.658577	11.935	106.762
7.658577	11.935	98.6241
9.658577	11.935	100.131
11.6586	11.935	98.2469
13.6586	11.935	86.1275
15.6586	11.935	106.52
17.6586	11.935	0.952799
19.6586	11.935	58.555
21.6586	11.935	94.2312
23.6586	11.935	95.5426
-39.3414	12.935	96.0735
-37.3414	12.935	96.3931
-35.3414	12.935	96.2444
-33.3414	12.935	99.2005
-31.3414	12.935	96.0657
-29.3414	12.935	96.3636
-27.3414	12.935	85.1288
-25.3414	12.935	90.3424
-23.3414	12.935	87.6545
-21.3414	12.935	93.4548
-19.3414	12.935	95.1449
-17.3414	12.935	84.46
-15.3414	12.935	98.5311
-13.3414	12.935	97.8603
-11.3414	12.935	86.7103
-9.341423	12.935	87.8477
-7.341423	12.935	92.4779
-5.341423	12.935	97.6987
-3.341423	12.935	97.9855
-1.341423	12.935	93.4598
0.658577	12.935	103.535
2.658577	12.935	101.943
4.658577	12.935	111.836
6.658577	12.935	97.2448
8.658577	12.935	95.5608
10.6586	12.935	100.31
12.6586	12.935	100.064
14.6586	12.935	58.2764
16.6586	12.935	3.140427
18.6586	12.935	86.8917
20.6586	12.935	33.3903
22.6586	12.935	94.5444
24.6586	12.935	86.9659
-38.3414	13.935	96.5354
-36.3414	13.935	97.7832
-34.3414	13.935	97.9978
-32.3414	13.935	98.5095
-30.3414	13.935	94.9446
-28.3414	13.935	84.2323
-26.3414	13.935	80.0655
-24.3414	13.935	89.0359
-22.3414	13.935	92.5011
-20.3414	13.935	93.1488
-18.3414	13.935	96.3546
-16.3414	13.935	86.0411
-14.3414	13.935	97.4649
-12.3414	13.935	95.6755
-10.3414	13.935	90.227
-8.341423	13.935	103.755
-6.341423	13.935	98.6119
-4.341423	13.935	96.2957
-2.341423	13.935	92.7217
-0.341423	13.935	99.1213
1.658577	13.935	96.5789
3.658577	13.935	102.479
5.658577	13.935	111.701
7.658577	13.935	97.0882
9.658577	13.935	96.6752
11.6586	13.935	92.1973
13.6586	13.935	97.3803
15.6586	13.935	0.639823
17.6586	13.935	100.323
19.6586	13.935	314.066
21.6586	13.935	0.711735
23.6586	13.935	29.7872
-39.3414	14.935	99.3629
-37.3414	14.935	98.7538
-35.3414	14.935	95.426
-33.3414	14.935	95.7356
-31.3414	14.935	96.8457
-29.3414	14.935	86.8704
-27.3414	14.935	81.3604
-25.3414	14.935	80.8065
-23.3414	14.935	93.0994
-21.3414	14.935	98.1964
-19.3414	14.935	95.9903
-17.3414	14.935	92.5012
-15.3414	14.935	96.9196
-13.3414	14.935	91.9714
-11.3414	14.935	97.435
-9.341423	14.935	102.352
-7.341423	14.935	98.5396
-5.341423	14.935	96.9915
-3.341423	14.935	94.4373
-1.341423	14.935	96.1597
0.658577	14.935	101.481
2.658577	14.935	105.168
4.658577	14.935	88.8293
6.658577	14.935	113.178
8.658577	14.935	91.0437
10.6586	14.935	93.5766
12.6586	14.935	93.8022
14.6586	14.935	68.3085
16.6586	14.935	2557.39
18.6586	14.935	0.639823
20.6586	14.935	183.099
22.6586	14.935	211.906
24.6586	14.935	68.5982
-38.3414	15.935	101.026
-36.3414	15.935	98.2528
-34.3414	15.935	97.3824
-32.3414	15.935	98.3737
-30.3414	15.935	102.873
-28.3414	15.935	80.586
-26.3414	15.935	82.7458
-24.3414	15.935	78.8085
-22.3414	15.935	92.5832
-20.3414	15.935	88.6438
-18.3414	15.935	91.6752
-16.3414	15.935	92.1534
-14.3414	15.935	91.5005
-12.3414	15.935	95.133
-10.3414	15.935	111.349
-8.341423	15.935	80.9645
-6.341423	15.935	97.7453
-4.341423	15.935	112.487
-2.341423	15.935	97.9657
-0.341423	15.935	97.5313
1.658577	15.935	101.292
3.658577	15.935	106.335
5.658577	15.935	26.3788
7.658577	15.935	87.3005
9.658577	15.935	96.374
11.6586	15.935	100.17
13.6586	15.935	104.846
15.6586	15.935	1.228050
17.6586	15.935	96.9245
19.6586	15.935	146.083
21.6586	15.935	1.799804
23.6586	15.935	0.639823
24.6586	15.935	596.577