File: data/derived_data/raman/20170920_Gr-NH2_for_Radisurf/20170920 Gr-NH for Radisurf map 2/D int.txt
#XList		#YList		#IList
-39.3414	-21.065	137.29
-37.3414	-21.065	76.6373
-35.3414	-21.065	100.306
-33.3414	-21.065	858.759
-31.3414	-21.065	903.439
-29.3414	-21.065	690.237
-27.3414	-21.065	684.426
-25.3414	-21.065	230.004
-23.3414	-21.065	8.247737
-21.3414	-21.065	235.947
-19.3414	-21.065	6.778256
-17.3414	-21.065	202.604
-15.3414	-21.065	1197.06
-13.3414	-21.065	726.785
-11.3414	-21.065	151.379
-9.341423	-21.065	17.0427
-7.341423	-21.065	367.396
-5.341423	-21.065	492.156
-3.341423	-21.065	50.623
-1.341423	-21.065	230.766
0.658577	-21.065	344.237
2.658577	-21.065	376.515
4.658577	-21.065	139.612
6.658577	-21.065	2.584096
8.658577	-21.065	4.179697
10.6586	-21.065	174.45
12.6586	-21.065	441.965
14.6586	-21.065	651.862
16.6586	-21.065	139.747
18.6586	-21.065	552.441
20.6586	-21.065	202.36
22.6586	-21.065	11.585
24.6586	-21.065	0.000000
-38.3414	-20.065	192.863
-36.3414	-20.065	80.5601
-34.3414	-20.065	259.851
-32.3414	-20.065	797.547
-30.3414	-20.065	741.47
-28.3414	-20.065	552.752
-26.3414	-20.065	652.432
-24.3414	-20.065	514.745
-22.3414	-20.065	70.6976
-20.3414	-20.065	321.4
-18.3414	-20.065	185.52
-16.3414	-20.065	1242.57
-14.3414	-20.065	993.835
-12.3414	-20.065	994.246
-10.3414	-20.065	64.0112
-8.341423	-20.065	351.927
-6.341423	-20.065	479.836
-4.341423	-20.065	137.782
-2.341423	-20.065	642.661
-0.341423	-20.065	310.962
1.658577	-20.065	222.848
3.658577	-20.065	121.969
5.658577	-20.065	42.0004
7.658577	-20.065	1.742992
9.658577	-20.065	177.587
11.6586	-20.065	272.518
13.6586	-20.065	637.864
15.6586	-20.065	408.668
17.6586	-20.065	307.017
19.6586	-20.065	561.11
21.6586	-20.065	337.374
23.6586	-20.065	11.4336
-39.3414	-19.065	259.849
-37.3414	-19.065	111.352
-35.3414	-19.065	197.305
-33.3414	-19.065	264.135
-31.3414	-19.065	1011.16
-29.3414	-19.065	616.514
-27.3414	-19.065	545.025
-25.3414	-19.065	568.789
-23.3414	-19.065	651.272
-21.3414	-19.065	580.422
-19.3414	-19.065	663.133
-17.3414	-19.065	1094.91
-15.3414	-19.065	1140.21
-13.3414	-19.065	979.501
-11.3414	-19.065	325.434
-9.341423	-19.065	460.597
-7.341423	-19.065	612.224
-5.341423	-19.065	348.84
-3.341423	-19.065	736.723
-1.341423	-19.065	271.022
0.658577	-19.065	118.596
2.658577	-19.065	176.11
4.658577	-19.065	159.413
6.658577	-19.065	9.366126
8.658577	-19.065	215.571
10.6586	-19.065	237.358
12.6586	-19.065	408.133
14.6586	-19.065	405.92
16.6586	-19.065	415.493
18.6586	-19.065	567.877
20.6586	-19.065	596.18
22.6586	-19.065	15.5043
24.6586	-19.065	14.3178
-38.3414	-18.065	204.762
-36.3414	-18.065	224.227
-34.3414	-18.065	10.496
-32.3414	-18.065	785.529
-30.3414	-18.065	953.947
-28.3414	-18.065	586.302
-26.3414	-18.065	637.602
-24.3414	-18.065	613.664
-22.3414	-18.065	616.628
-20.3414	-18.065	646.653
-18.3414	-18.065	531.198
-16.3414	-18.065	844.484
-14.3414	-18.065	1121.52
-12.3414	-18.065	849.508
-10.3414	-18.065	657.702
-8.341423	-18.065	485.872
-6.341423	-18.065	584.618
-4.341423	-18.065	432.498
-2.341423	-18.065	381.58
-0.341423	-18.065	247.413
1.658577	-18.065	124.61
3.658577	-18.065	156.045
5.658577	-18.065	182.108
7.658577	-18.065	836.707
9.658577	-18.065	503.062
11.6586	-18.065	723.201
13.6586	-18.065	599.836
15.6586	-18.065	420.398
17.6586	-18.065	427.06
19.6586	-18.065	239.335
21.6586	-18.065	213.997
23.6586	-18.065	587.405
-39.3414	-17.065	485.196
-37.3414	-17.065	1037.85
-35.3414	-17.065	20.3948
-33.3414	-17.065	32.8879
-31.3414	-17.065	554.44
-29.3414	-17.065	570.713
-27.3414	-17.065	518.766
-25.3414	-17.065	559.105
-23.3414	-17.065	639.509
-21.3414	-17.065	698.061
-19.3414	-17.065	374.601
-17.3414	-17.065	477.197
-15.3414	-17.065	1190.96
-13.3414	-17.065	943.733
-11.3414	-17.065	630.965
-9.341423	-17.065	528.348
-7.341423	-17.065	132.065
-5.341423	-17.065	833.589
-3.341423	-17.065	332.149
-1.341423	-17.065	503.47
0.658577	-17.065	214.599
2.658577	-17.065	165.373
4.658577	-17.065	508.688
6.658577	-17.065	424.432
8.658577	-17.065	488.608
10.6586	-17.065	506.544
12.6586	-17.065	606.439
14.6586	-17.065	361.497
16.6586	-17.065	235.986
18.6586	-17.065	95.0936
20.6586	-17.065	59.7861
22.6586	-17.065	417.192
24.6586	-17.065	645.941
-38.3414	-16.065	444.733
-36.3414	-16.065	103.437
-34.3414	-16.065	197.571
-32.3414	-16.065	871.587
-30.3414	-16.065	503.746
-28.3414	-16.065	552.775
-26.3414	-16.065	517.669
-24.3414	-16.065	606.098
-22.3414	-16.065	623.959
-20.3414	-16.065	73.7459
-18.3414	-16.065	48.4356
-16.3414	-16.065	809.812
-14.3414	-16.065	1289.51
-12.3414	-16.065	779.337
-10.3414	-16.065	454.253
-8.341423	-16.065	228.028
-6.341423	-16.065	607.639
-4.341423	-16.065	425.219
-2.341423	-16.065	104.444
-0.341423	-16.065	538.426
1.658577	-16.065	180.899
3.658577	-16.065	69.4362
5.658577	-16.065	456.127
7.658577	-16.065	423.147
9.658577	-16.065	488.881
11.6586	-16.065	829.747
13.6586	-16.065	98.8262
15.6586	-16.065	544.28
17.6586	-16.065	214.405
19.6586	-16.065	388.86
21.6586	-16.065	429.273
23.6586	-16.065	569.855
-39.3414	-15.065	83.0326
-37.3414	-15.065	111.315
-35.3414	-15.065	1085.13
-33.3414	-15.065	1005.7
-31.3414	-15.065	564.873
-29.3414	-15.065	569.05
-27.3414	-15.065	547.513
-25.3414	-15.065	578.294
-23.3414	-15.065	546.058
-21.3414	-15.065	435.78
-19.3414	-15.065	22.4163
-17.3414	-15.065	845.016
-15.3414	-15.065	939.519
-13.3414	-15.065	858.768
-11.3414	-15.065	281.975
-9.341423	-15.065	435.251
-7.341423	-15.065	333.053
-5.341423	-15.065	423.965
-3.341423	-15.065	140.426
-1.341423	-15.065	130.306
0.658577	-15.065	525.21
2.658577	-15.065	191.039
4.658577	-15.065	408.165
6.658577	-15.065	713.224
8.658577	-15.065	486.266
10.6586	-15.065	557.266
12.6586	-15.065	76.4957
14.6586	-15.065	208.037
16.6586	-15.065	334.992
18.6586	-15.065	326.733
20.6586	-15.065	124.922
22.6586	-15.065	705.335
24.6586	-15.065	237.188
-38.3414	-14.065	183.92
-36.3414	-14.065	1014.14
-34.3414	-14.065	764.735
-32.3414	-14.065	1001.53
-30.3414	-14.065	545.413
-28.3414	-14.065	432.126
-26.3414	-14.065	614.202
-24.3414	-14.065	525.714
-22.3414	-14.065	551.215
-20.3414	-14.065	373.838
-18.3414	-14.065	352.054
-16.3414	-14.065	473.057
-14.3414	-14.065	835.76
-12.3414	-14.065	433.19
-10.3414	-14.065	331.492
-8.341423	-14.065	157.593
-6.341423	-14.065	280.738
-4.341423	-14.065	123.819
-2.341423	-14.065	100.558
-0.341423	-14.065	329.582
1.658577	-14.065	312.093
3.658577	-14.065	99.2847
5.658577	-14.065	308.74
7.658577	-14.065	635.024
9.658577	-14.065	669.539
11.6586	-14.065	34.559
13.6586	-14.065	354.919
15.6586	-14.065	11.1233
17.6586	-14.065	42.9581
19.6586	-14.065	173.991
21.6586	-14.065	463.834
23.6586	-14.065	294.697
-39.3414	-13.065	571.908
-37.3414	-13.065	1003.55
-35.3414	-13.065	836.84
-33.3414	-13.065	884.982
-31.3414	-13.065	848.81
-29.3414	-13.065	594.051
-27.3414	-13.065	628.06
-25.3414	-13.065	616.971
-23.3414	-13.065	552.991
-21.3414	-13.065	296.89
-19.3414	-13.065	216.931
-17.3414	-13.065	46.6945
-15.3414	-13.065	244.228
-13.3414	-13.065	26.7475
-11.3414	-13.065	327.531
-9.341423	-13.065	184.443
-7.341423	-13.065	210.313
-5.341423	-13.065	247.855
-3.341423	-13.065	221.784
-1.341423	-13.065	268.114
0.658577	-13.065	397.336
2.658577	-13.065	141.758
4.658577	-13.065	157.569
6.658577	-13.065	310.413
8.658577	-13.065	619.23
10.6586	-13.065	34.1329
12.6586	-13.065	47.2806
14.6586	-13.065	326.15
16.6586	-13.065	198.278
18.6586	-13.065	387.969
20.6586	-13.065	638.101
22.6586	-13.065	427.385
24.6586	-13.065	211.334
-38.3414	-12.065	932.301
-36.3414	-12.065	981.973
-34.3414	-12.065	819.283
-32.3414	-12.065	805.415
-30.3414	-12.065	758.624
-28.3414	-12.065	774.576
-26.3414	-12.065	720.899
-24.3414	-12.065	670.037
-22.3414	-12.065	651.113
-20.3414	-12.065	93.2555
-18.3414	-12.065	66.8832
-16.3414	-12.065	49.0596
-14.3414	-12.065	39.7139
-12.3414	-12.065	451.749
-10.3414	-12.065	312.464
-8.341423	-12.065	187.515
-6.341423	-12.065	390.531
-4.341423	-12.065	149.348
-2.341423	-12.065	367.74
-0.341423	-12.065	381.412
1.658577	-12.065	148.84
3.658577	-12.065	92.5586
5.658577	-12.065	159.354
7.658577	-12.065	484.84
9.658577	-12.065	32.7602
11.6586	-12.065	13.5094
13.6586	-12.065	83.5284
15.6586	-12.065	652.734
17.6586	-12.065	563.78
19.6586	-12.065	304.063
21.6586	-12.065	242.751
23.6586	-12.065	385.089
-39.3414	-11.065	1068.67
-37.3414	-11.065	955.094
-35.3414	-11.065	813.973
-33.3414	-11.065	783.149
-31.3414	-11.065	750.542
-29.3414	-11.065	870.771
-27.3414	-11.065	776.985
-25.3414	-11.065	706.995
-23.3414	-11.065	633.727
-21.3414	-11.065	199.443
-19.3414	-11.065	354.534
-17.3414	-11.065	99.7222
-15.3414	-11.065	302.598
-13.3414	-11.065	110.279
-11.3414	-11.065	393.442
-9.341423	-11.065	119.383
-7.341423	-11.065	227.002
-5.341423	-11.065	164.739
-3.341423	-11.065	134.594
-1.341423	-11.065	260.765
0.658577	-11.065	195.684
2.658577	-11.065	346.308
4.658577	-11.065	51.645
6.658577	-11.065	183.857
8.658577	-11.065	488.898
10.6586	-11.065	0.000000
12.6586	-11.065	37.3484
14.6586	-11.065	582.924
16.6586	-11.065	335.846
18.6586	-11.065	155.402
20.6586	-11.065	71.4769
22.6586	-11.065	118.245
24.6586	-11.065	361.627
-38.3414	-10.065	897.773
-36.3414	-10.065	758.773
-34.3414	-10.065	788.913
-32.3414	-10.065	962.204
-30.3414	-10.065	822.672
-28.3414	-10.065	855.206
-26.3414	-10.065	872.449
-24.3414	-10.065	633.249
-22.3414	-10.065	59.4698
-20.3414	-10.065	407.962
-18.3414	-10.065	215.317
-16.3414	-10.065	273.058
-14.3414	-10.065	464.07
-12.3414	-10.065	617.288
-10.3414	-10.065	294.624
-8.341423	-10.065	76.5483
-6.341423	-10.065	51.3725
-4.341423	-10.065	66.78
-2.341423	-10.065	116.56
-0.341423	-10.065	294.972
1.658577	-10.065	386.392
3.658577	-10.065	41.7524
5.658577	-10.065	194.918
7.658577	-10.065	650.156
9.658577	-10.065	1.253667
11.6586	-10.065	1.873304
13.6586	-10.065	230.122
15.6586	-10.065	477.757
17.6586	-10.065	123.446
19.6586	-10.065	123.26
21.6586	-10.065	115.08
23.6586	-10.065	166.593
-39.3414	-9.065000	891.223
-37.3414	-9.065000	724.377
-35.3414	-9.065000	923.597
-33.3414	-9.065000	931.616
-31.3414	-9.065000	904.641
-29.3414	-9.065000	875.577
-27.3414	-9.065000	931.759
-25.3414	-9.065000	307.307
-23.3414	-9.065000	30.2881
-21.3414	-9.065000	22.7579
-19.3414	-9.065000	289.407
-17.3414	-9.065000	251.542
-15.3414	-9.065000	725.735
-13.3414	-9.065000	325.744
-11.3414	-9.065000	983.474
-9.341423	-9.065000	266.37
-7.341423	-9.065000	142.61
-5.341423	-9.065000	24.9827
-3.341423	-9.065000	74.4924
-1.341423	-9.065000	155.701
0.658577	-9.065000	321.034
2.658577	-9.065000	50.2234
4.658577	-9.065000	169.838
6.658577	-9.065000	651.371
8.658577	-9.065000	29.7746
10.6586	-9.065000	0.000000
12.6586	-9.065000	248.703
14.6586	-9.065000	176.736
16.6586	-9.065000	209.831
18.6586	-9.065000	111.061
20.6586	-9.065000	105.037
22.6586	-9.065000	154.474
24.6586	-9.065000	99.4001
-38.3414	-8.065000	656.274
-36.3414	-8.065000	946.033
-34.3414	-8.065000	1004.28
-32.3414	-8.065000	1093.48
-30.3414	-8.065000	792.662
-28.3414	-8.065000	802.451
-26.3414	-8.065000	636.991
-24.3414	-8.065000	241.132
-22.3414	-8.065000	23.8962
-20.3414	-8.065000	112.927
-18.3414	-8.065000	362.495
-16.3414	-8.065000	634.902
-14.3414	-8.065000	354.911
-12.3414	-8.065000	531.989
-10.3414	-8.065000	509.867
-8.341423	-8.065000	651.316
-6.341423	-8.065000	36.66
-4.341423	-8.065000	47.3194
-2.341423	-8.065000	57.2764
-0.341423	-8.065000	108.297
1.658577	-8.065000	69.169
3.658577	-8.065000	265.686
5.658577	-8.065000	599.352
7.658577	-8.065000	634.283
9.658577	-8.065000	4.845205
11.6586	-8.065000	3.839847
13.6586	-8.065000	255.993
15.6586	-8.065000	304.012
17.6586	-8.065000	322.336
19.6586	-8.065000	125.24
21.6586	-8.065000	86.9095
23.6586	-8.065000	278.375
-39.3414	-7.065000	819.38
-37.3414	-7.065000	848.737
-35.3414	-7.065000	994.419
-33.3414	-7.065000	1063.69
-31.3414	-7.065000	850.715
-29.3414	-7.065000	776.339
-27.3414	-7.065000	296.618
-25.3414	-7.065000	909.306
-23.3414	-7.065000	180.657
-21.3414	-7.065000	108.04
-19.3414	-7.065000	609.502
-17.3414	-7.065000	797.873
-15.3414	-7.065000	384.833
-13.3414	-7.065000	503.5
-11.3414	-7.065000	574.305
-9.341423	-7.065000	734.212
-7.341423	-7.065000	41.4722
-5.341423	-7.065000	10.0172
-3.341423	-7.065000	325.259
-1.341423	-7.065000	14.9731
0.658577	-7.065000	11.7868
2.658577	-7.065000	367.234
4.658577	-7.065000	483.48
6.658577	-7.065000	257.978
8.658577	-7.065000	13.7088
10.6586	-7.065000	181.372
12.6586	-7.065000	63.3103
14.6586	-7.065000	817.241
16.6586	-7.065000	295.279
18.6586	-7.065000	225.6
20.6586	-7.065000	347.051
22.6586	-7.065000	260.482
24.6586	-7.065000	203.454
-38.3414	-6.065000	764.464
-36.3414	-6.065000	880.36
-34.3414	-6.065000	956.875
-32.3414	-6.065000	1025.67
-30.3414	-6.065000	820.429
-28.3414	-6.065000	991.607
-26.3414	-6.065000	896.622
-24.3414	-6.065000	1029.51
-22.3414	-6.065000	775.346
-20.3414	-6.065000	268.953
-18.3414	-6.065000	16.3658
-16.3414	-6.065000	609.228
-14.3414	-6.065000	700.71
-12.3414	-6.065000	675.089
-10.3414	-6.065000	745.937
-8.341423	-6.065000	1001
-6.341423	-6.065000	372.419
-4.341423	-6.065000	6.372738
-2.341423	-6.065000	191.512
-0.341423	-6.065000	6.691418
1.658577	-6.065000	7.230734
3.658577	-6.065000	610.467
5.658577	-6.065000	640.201
7.658577	-6.065000	433.133
9.658577	-6.065000	31.3341
11.6586	-6.065000	404.25
13.6586	-6.065000	643.634
15.6586	-6.065000	547.172
17.6586	-6.065000	199.854
19.6586	-6.065000	183.989
21.6586	-6.065000	278.576
23.6586	-6.065000	347.619
-39.3414	-5.065000	71.6165
-37.3414	-5.065000	857.114
-35.3414	-5.065000	697.06
-33.3414	-5.065000	1081.84
-31.3414	-5.065000	1099.51
-29.3414	-5.065000	898.101
-27.3414	-5.065000	775.511
-25.3414	-5.065000	669.541
-23.3414	-5.065000	812.827
-21.3414	-5.065000	661.833
-19.3414	-5.065000	11.7898
-17.3414	-5.065000	38.1471
-15.3414	-5.065000	599.173
-13.3414	-5.065000	914.82
-11.3414	-5.065000	1000.18
-9.341423	-5.065000	976.553
-7.341423	-5.065000	741.284
-5.341423	-5.065000	445.932
-3.341423	-5.065000	1.727375
-1.341423	-5.065000	87.9791
0.658577	-5.065000	279.605
2.658577	-5.065000	34.466
4.658577	-5.065000	480.879
6.658577	-5.065000	335.16
8.658577	-5.065000	54.1478
10.6586	-5.065000	535.066
12.6586	-5.065000	774.184
14.6586	-5.065000	720.262
16.6586	-5.065000	592.378
18.6586	-5.065000	234.767
20.6586	-5.065000	221.807
22.6586	-5.065000	103.741
24.6586	-5.065000	105.81
-38.3414	-4.065000	132.569
-36.3414	-4.065000	411.273
-34.3414	-4.065000	932.563
-32.3414	-4.065000	613.319
-30.3414	-4.065000	403.218
-28.3414	-4.065000	420.389
-26.3414	-4.065000	841.444
-24.3414	-4.065000	814.158
-22.3414	-4.065000	623.355
-20.3414	-4.065000	453.018
-18.3414	-4.065000	111.113
-16.3414	-4.065000	212.589
-14.3414	-4.065000	678.904
-12.3414	-4.065000	582.027
-10.3414	-4.065000	468.688
-8.341423	-4.065000	559.277
-6.341423	-4.065000	352.948
-4.341423	-4.065000	23.0522
-2.341423	-4.065000	19.6258
-0.341423	-4.065000	336.165
1.658577	-4.065000	221.689
3.658577	-4.065000	22.7818
5.658577	-4.065000	362.52
7.658577	-4.065000	654.293
9.658577	-4.065000	688.176
11.6586	-4.065000	324.071
13.6586	-4.065000	1200.58
15.6586	-4.065000	193.668
17.6586	-4.065000	664.046
19.6586	-4.065000	465.602
21.6586	-4.065000	478.786
23.6586	-4.065000	260.5
-39.3414	-3.065000	0.000000
-37.3414	-3.065000	208.21
-35.3414	-3.065000	528.625
-33.3414	-3.065000	588.217
-31.3414	-3.065000	142.342
-29.3414	-3.065000	65.3288
-27.3414	-3.065000	194.908
-25.3414	-3.065000	539.193
-23.3414	-3.065000	938.341
-21.3414	-3.065000	823.5
-19.3414	-3.065000	492.352
-17.3414	-3.065000	479.771
-15.3414	-3.065000	490.473
-13.3414	-3.065000	727.555
-11.3414	-3.065000	277.146
-9.341423	-3.065000	301.205
-7.341423	-3.065000	142.364
-5.341423	-3.065000	363.062
-3.341423	-3.065000	97.9775
-1.341423	-3.065000	1043.97
0.658577	-3.065000	903.087
2.658577	-3.065000	34.2184
4.658577	-3.065000	57.7988
6.658577	-3.065000	580.28
8.658577	-3.065000	618.685
10.6586	-3.065000	353.917
12.6586	-3.065000	1028.17
14.6586	-3.065000	994.182
16.6586	-3.065000	703.624
18.6586	-3.065000	633.148
20.6586	-3.065000	302.346
22.6586	-3.065000	42.9171
24.6586	-3.065000	240.073
-38.3414	-2.065000	247.096
-36.3414	-2.065000	61.3181
-34.3414	-2.065000	135.627
-32.3414	-2.065000	25.9014
-30.3414	-2.065000	740.863
-28.3414	-2.065000	9.641817
-26.3414	-2.065000	742.999
-24.3414	-2.065000	923.97
-22.3414	-2.065000	714.66
-20.3414	-2.065000	237.921
-18.3414	-2.065000	74.8534
-16.3414	-2.065000	291.44
-14.3414	-2.065000	808.042
-12.3414	-2.065000	385.119
-10.3414	-2.065000	614.974
-8.341423	-2.065000	251.543
-6.341423	-2.065000	242.979
-4.341423	-2.065000	198.254
-2.341423	-2.065000	729.299
-0.341423	-2.065000	1150.08
1.658577	-2.065000	609.598
3.658577	-2.065000	309.262
5.658577	-2.065000	421.888
7.658577	-2.065000	609.632
9.658577	-2.065000	295.667
11.6586	-2.065000	387.189
13.6586	-2.065000	1027.01
15.6586	-2.065000	806.866
17.6586	-2.065000	548.473
19.6586	-2.065000	485.225
21.6586	-2.065000	33.0435
23.6586	-2.065000	126.585
-39.3414	-1.065000	5.862945
-37.3414	-1.065000	193.609
-35.3414	-1.065000	76.5111
-33.3414	-1.065000	322.292
-31.3414	-1.065000	225.594
-29.3414	-1.065000	15.6659
-27.3414	-1.065000	9.911999
-25.3414	-1.065000	727.993
-23.3414	-1.065000	382.825
-21.3414	-1.065000	265.5
-19.3414	-1.065000	73.9698
-17.3414	-1.065000	197.896
-15.3414	-1.065000	645.503
-13.3414	-1.065000	521.051
-11.3414	-1.065000	491.048
-9.341423	-1.065000	251.924
-7.341423	-1.065000	241.422
-5.341423	-1.065000	689.553
-3.341423	-1.065000	161.818
-1.341423	-1.065000	842.655
0.658577	-1.065000	966.693
2.658577	-1.065000	655.082
4.658577	-1.065000	210.777
6.658577	-1.065000	219.311
8.658577	-1.065000	161.122
10.6586	-1.065000	493.405
12.6586	-1.065000	785.684
14.6586	-1.065000	941.462
16.6586	-1.065000	546.853
18.6586	-1.065000	136.649
20.6586	-1.065000	365.995
22.6586	-1.065000	137.08
24.6586	-1.065000	134.791
-38.3414	-0.065000	12.5945
-36.3414	-0.065000	19.1851
-34.3414	-0.065000	109.755
-32.3414	-0.065000	67.6306
-30.3414	-0.065000	34.4812
-28.3414	-0.065000	7.650307
-26.3414	-0.065000	88.9917
-24.3414	-0.065000	868.935
-22.3414	-0.065000	121.042
-20.3414	-0.065000	136.463
-18.3414	-0.065000	518.978
-16.3414	-0.065000	369.793
-14.3414	-0.065000	740.761
-12.3414	-0.065000	678.674
-10.3414	-0.065000	424.89
-8.341423	-0.065000	362.588
-6.341423	-0.065000	424.375
-4.341423	-0.065000	544.366
-2.341423	-0.065000	965.724
-0.341423	-0.065000	1081.87
1.658577	-0.065000	968.386
3.658577	-0.065000	295.828
5.658577	-0.065000	573.4
7.658577	-0.065000	624.78
9.658577	-0.065000	755.729
11.6586	-0.065000	1044.08
13.6586	-0.065000	834.446
15.6586	-0.065000	575.649
17.6586	-0.065000	460.92
19.6586	-0.065000	113.568
21.6586	-0.065000	884.145
23.6586	-0.065000	123.749
-39.3414	0.935000	9.946146
-37.3414	0.935000	5.819317
-35.3414	0.935000	71.9743
-33.3414	0.935000	204.372
-31.3414	0.935000	273.676
-29.3414	0.935000	14.4676
-27.3414	0.935000	23.3539
-25.3414	0.935000	885.321
-23.3414	0.935000	749.162
-21.3414	0.935000	528.68
-19.3414	0.935000	659.777
-17.3414	0.935000	301.533
-15.3414	0.935000	161.945
-13.3414	0.935000	688.091
-11.3414	0.935000	661.038
-9.341423	0.935000	405.887
-7.341423	0.935000	283.816
-5.341423	0.935000	892.48
-3.341423	0.935000	408.166
-1.341423	0.935000	1093.94
0.658577	0.935000	979.475
2.658577	0.935000	299.397
4.658577	0.935000	352.248
6.658577	0.935000	836.212
8.658577	0.935000	850.286
10.6586	0.935000	799.743
12.6586	0.935000	976.569
14.6586	0.935000	412.422
16.6586	0.935000	418.671
18.6586	0.935000	428.344
20.6586	0.935000	903.944
22.6586	0.935000	965.037
24.6586	0.935000	195.39
-38.3414	1.935000	27.6658
-36.3414	1.935000	257.782
-34.3414	1.935000	131.425
-32.3414	1.935000	837.884
-30.3414	1.935000	382.811
-28.3414	1.935000	20.4345
-26.3414	1.935000	666.886
-24.3414	1.935000	139.988
-22.3414	1.935000	734.268
-20.3414	1.935000	874.682
-18.3414	1.935000	34.6071
-16.3414	1.935000	8.982743
-14.3414	1.935000	1017.09
-12.3414	1.935000	900.818
-10.3414	1.935000	742.72
-8.341423	1.935000	449.895
-6.341423	1.935000	537.69
-4.341423	1.935000	978.192
-2.341423	1.935000	905.593
-0.341423	1.935000	975.863
1.658577	1.935000	154.751
3.658577	1.935000	202.369
5.658577	1.935000	757.859
7.658577	1.935000	742.316
9.658577	1.935000	924.068
11.6586	1.935000	916.272
13.6586	1.935000	901.724
15.6586	1.935000	522.949
17.6586	1.935000	509.769
19.6586	1.935000	360.542
21.6586	1.935000	810.744
23.6586	1.935000	838.538
-39.3414	2.935000	59.9259
-37.3414	2.935000	404.322
-35.3414	2.935000	249.973
-33.3414	2.935000	168.006
-31.3414	2.935000	609.206
-29.3414	2.935000	617.857
-27.3414	2.935000	585.75
-25.3414	2.935000	799.551
-23.3414	2.935000	200.92
-21.3414	2.935000	870.037
-19.3414	2.935000	127.936
-17.3414	2.935000	21.0215
-15.3414	2.935000	13.6707
-13.3414	2.935000	327.179
-11.3414	2.935000	740.546
-9.341423	2.935000	719.514
-7.341423	2.935000	476.521
-5.341423	2.935000	1021.07
-3.341423	2.935000	1085.22
-1.341423	2.935000	817.064
0.658577	2.935000	974.526
2.658577	2.935000	393.763
4.658577	2.935000	324.282
6.658577	2.935000	51.2711
8.658577	2.935000	805.957
10.6586	2.935000	991.038
12.6586	2.935000	629.056
14.6586	2.935000	1110
16.6586	2.935000	415.339
18.6586	2.935000	186.407
20.6586	2.935000	222.754
22.6586	2.935000	957.138
24.6586	2.935000	250.191
-38.3414	3.935000	497.455
-36.3414	3.935000	464.032
-34.3414	3.935000	95.0193
-32.3414	3.935000	331.657
-30.3414	3.935000	751.438
-28.3414	3.935000	726.407
-26.3414	3.935000	767.267
-24.3414	3.935000	368.255
-22.3414	3.935000	292.546
-20.3414	3.935000	868.106
-18.3414	3.935000	591.234
-16.3414	3.935000	56.3098
-14.3414	3.935000	27.3008
-12.3414	3.935000	526.592
-10.3414	3.935000	959.055
-8.341423	3.935000	227.617
-6.341423	3.935000	309.017
-4.341423	3.935000	161.596
-2.341423	3.935000	1170.89
-0.341423	3.935000	1080.42
1.658577	3.935000	938.523
3.658577	3.935000	272.806
5.658577	3.935000	727.601
7.658577	3.935000	489.066
9.658577	3.935000	1015.61
11.6586	3.935000	481.177
13.6586	3.935000	769.712
15.6586	3.935000	602.406
17.6586	3.935000	694.445
19.6586	3.935000	1136.32
21.6586	3.935000	895.753
23.6586	3.935000	383.533
-39.3414	4.935000	905.765
-37.3414	4.935000	975.924
-35.3414	4.935000	1156.91
-33.3414	4.935000	148.667
-31.3414	4.935000	584.662
-29.3414	4.935000	604.302
-27.3414	4.935000	418.788
-25.3414	4.935000	798.704
-23.3414	4.935000	352.587
-21.3414	4.935000	374.036
-19.3414	4.935000	791.369
-17.3414	4.935000	844.133
-15.3414	4.935000	572.132
-13.3414	4.935000	22.3815
-11.3414	4.935000	684.984
-9.341423	4.935000	807.536
-7.341423	4.935000	402.384
-5.341423	4.935000	51.6954
-3.341423	4.935000	937.97
-1.341423	4.935000	951.93
0.658577	4.935000	1097.2
2.658577	4.935000	492.524
4.658577	4.935000	252.095
6.658577	4.935000	726.931
8.658577	4.935000	1156.74
10.6586	4.935000	663.582
12.6586	4.935000	646.209
14.6586	4.935000	888.067
16.6586	4.935000	807.962
18.6586	4.935000	1102.51
20.6586	4.935000	697.534
22.6586	4.935000	831.744
24.6586	4.935000	134.046
-38.3414	5.935000	935.949
-36.3414	5.935000	921.82
-34.3414	5.935000	704.389
-32.3414	5.935000	611.964
-30.3414	5.935000	83.4262
-28.3414	5.935000	24.3871
-26.3414	5.935000	628.778
-24.3414	5.935000	694.241
-22.3414	5.935000	180.861
-20.3414	5.935000	293.697
-18.3414	5.935000	719.01
-16.3414	5.935000	768.054
-14.3414	5.935000	602.504
-12.3414	5.935000	194.506
-10.3414	5.935000	871.137
-8.341423	5.935000	650.402
-6.341423	5.935000	516.563
-4.341423	5.935000	53.9648
-2.341423	5.935000	1026.55
-0.341423	5.935000	983.383
1.658577	5.935000	1079.5
3.658577	5.935000	368.692
5.658577	5.935000	289.431
7.658577	5.935000	451.047
9.658577	5.935000	972.526
11.6586	5.935000	851.284
13.6586	5.935000	614.291
15.6586	5.935000	948.341
17.6586	5.935000	301.211
19.6586	5.935000	856.059
21.6586	5.935000	1250.31
23.6586	5.935000	463.006
-39.3414	6.935000	1134.07
-37.3414	6.935000	1033.07
-35.3414	6.935000	771.54
-33.3414	6.935000	595.874
-31.3414	6.935000	396.843
-29.3414	6.935000	543.433
-27.3414	6.935000	138.047
-25.3414	6.935000	589.701
-23.3414	6.935000	282.33
-21.3414	6.935000	289.163
-19.3414	6.935000	1046.24
-17.3414	6.935000	740.172
-15.3414	6.935000	909.59
-13.3414	6.935000	609.475
-11.3414	6.935000	286.086
-9.341423	6.935000	496.256
-7.341423	6.935000	391.885
-5.341423	6.935000	203.365
-3.341423	6.935000	547.139
-1.341423	6.935000	1063.06
0.658577	6.935000	1082.61
2.658577	6.935000	521.98
4.658577	6.935000	157.577
6.658577	6.935000	595.753
8.658577	6.935000	425.277
10.6586	6.935000	898.775
12.6586	6.935000	926.052
14.6586	6.935000	117.077
16.6586	6.935000	344.235
18.6586	6.935000	1096.57
20.6586	6.935000	1167.73
22.6586	6.935000	325.073
24.6586	6.935000	495.314
-38.3414	7.935000	1068.06
-36.3414	7.935000	1000.5
-34.3414	7.935000	809.732
-32.3414	7.935000	757.467
-30.3414	7.935000	791.901
-28.3414	7.935000	254.356
-26.3414	7.935000	389.595
-24.3414	7.935000	389.702
-22.3414	7.935000	215.536
-20.3414	7.935000	450.477
-18.3414	7.935000	755.282
-16.3414	7.935000	731.201
-14.3414	7.935000	517.018
-12.3414	7.935000	822.627
-10.3414	7.935000	317.677
-8.341423	7.935000	358.355
-6.341423	7.935000	402.359
-4.341423	7.935000	324.769
-2.341423	7.935000	862.82
-0.341423	7.935000	1033.55
1.658577	7.935000	793.213
3.658577	7.935000	404.162
5.658577	7.935000	217.086
7.658577	7.935000	363.237
9.658577	7.935000	564.609
11.6586	7.935000	653.562
13.6586	7.935000	692.455
15.6586	7.935000	483.093
17.6586	7.935000	545.007
19.6586	7.935000	45.6323
21.6586	7.935000	904.168
23.6586	7.935000	560.063
-39.3414	8.935000	1016.79
-37.3414	8.935000	862.227
-35.3414	8.935000	1033.69
-33.3414	8.935000	930.872
-31.3414	8.935000	906.284
-29.3414	8.935000	671.715
-27.3414	8.935000	505.423
-25.3414	8.935000	484.308
-23.3414	8.935000	295.659
-21.3414	8.935000	265.143
-19.3414	8.935000	550.601
-17.3414	8.935000	783.137
-15.3414	8.935000	1228.78
-13.3414	8.935000	710.203
-11.3414	8.935000	253.186
-9.341423	8.935000	328.423
-7.341423	8.935000	458.168
-5.341423	8.935000	488.63
-3.341423	8.935000	629.794
-1.341423	8.935000	1081.97
0.658577	8.935000	964.29
2.658577	8.935000	406.177
4.658577	8.935000	633.168
6.658577	8.935000	135.75
8.658577	8.935000	188.324
10.6586	8.935000	475.445
12.6586	8.935000	682.907
14.6586	8.935000	445.486
16.6586	8.935000	86.1618
18.6586	8.935000	34.5427
20.6586	8.935000	13.8871
22.6586	8.935000	46.1846
24.6586	8.935000	403.332
-38.3414	9.935000	773.8
-36.3414	9.935000	748.348
-34.3414	9.935000	917.122
-32.3414	9.935000	935.685
-30.3414	9.935000	739.91
-28.3414	9.935000	825.163
-26.3414	9.935000	391.467
-24.3414	9.935000	147.67
-22.3414	9.935000	629.157
-20.3414	9.935000	504.009
-18.3414	9.935000	627.627
-16.3414	9.935000	855.181
-14.3414	9.935000	947.543
-12.3414	9.935000	494.348
-10.3414	9.935000	366.539
-8.341423	9.935000	370.244
-6.341423	9.935000	1144.53
-4.341423	9.935000	817.82
-2.341423	9.935000	591.668
-0.341423	9.935000	1161.14
1.658577	9.935000	398.022
3.658577	9.935000	312.877
5.658577	9.935000	121.347
7.658577	9.935000	286.233
9.658577	9.935000	544.114
11.6586	9.935000	477.416
13.6586	9.935000	31.5461
15.6586	9.935000	7.203486
17.6586	9.935000	17.9786
19.6586	9.935000	19.7144
21.6586	9.935000	428.379
23.6586	9.935000	10.7809
-39.3414	10.935	599.115
-37.3414	10.935	729.053
-35.3414	10.935	866.263
-33.3414	10.935	642.542
-31.3414	10.935	1068.92
-29.3414	10.935	866.552
-27.3414	10.935	313.645
-25.3414	10.935	92.5397
-23.3414	10.935	110.802
-21.3414	10.935	323.237
-19.3414	10.935	692.74
-17.3414	10.935	593.333
-15.3414	10.935	853.335
-13.3414	10.935	696.078
-11.3414	10.935	202.093
-9.341423	10.935	396.518
-7.341423	10.935	493.239
-5.341423	10.935	1076.78
-3.341423	10.935	255.901
-1.341423	10.935	1018.28
0.658577	10.935	790.792
2.658577	10.935	397.093
4.658577	10.935	130.596
6.658577	10.935	185.932
8.658577	10.935	126.628
10.6586	10.935	138.429
12.6586	10.935	379.507
14.6586	10.935	1.317164
16.6586	10.935	0.000000
18.6586	10.935	12.239
20.6586	10.935	413.232
22.6586	10.935	465.901
24.6586	10.935	146.765
-38.3414	11.935	729.156
-36.3414	11.935	823.243
-34.3414	11.935	678.452
-32.3414	11.935	717.348
-30.3414	11.935	1025.19
-28.3414	11.935	944.113
-26.3414	11.935	362.358
-24.3414	11.935	33.5277
-22.3414	11.935	510.513
-20.3414	11.935	347.009
-18.3414	11.935	480.366
-16.3414	11.935	479.588
-14.3414	11.935	841.422
-12.3414	11.935	234.57
-10.3414	11.935	130.475
-8.341423	11.935	416.084
-6.341423	11.935	433.936
-4.341423	11.935	802.047
-2.341423	11.935	216.08
-0.341423	11.935	1057.26
1.658577	11.935	353.026
3.658577	11.935	67.7168
5.658577	11.935	252.425
7.658577	11.935	802.949
9.658577	11.935	412.328
11.6586	11.935	487.383
13.6586	11.935	258.76
15.6586	11.935	0.000000
17.6586	11.935	37.0002
19.6586	11.935	6.937548
21.6586	11.935	294.986
23.6586	11.935	521.302
-39.3414	12.935	744.189
-37.3414	12.935	809.546
-35.3414	12.935	787.912
-33.3414	12.935	782.614
-31.3414	12.935	862.552
-29.3414	12.935	1075.76
-27.3414	12.935	229.053
-25.3414	12.935	22.7824
-23.3414	12.935	838.31
-21.3414	12.935	562.981
-19.3414	12.935	769.557
-17.3414	12.935	506.248
-15.3414	12.935	841.232
-13.3414	12.935	576.709
-11.3414	12.935	214.785
-9.341423	12.935	285.392
-7.341423	12.935	399.988
-5.341423	12.935	410.132
-3.341423	12.935	839.597
-1.341423	12.935	623.313
0.658577	12.935	531.575
2.658577	12.935	441.877
4.658577	12.935	86.4387
6.658577	12.935	1001.57
8.658577	12.935	539.901
10.6586	12.935	511.587
12.6586	12.935	557.031
14.6586	12.935	3.934284
16.6586	12.935	0.000000
18.6586	12.935	0.000000
20.6586	12.935	7.147730
22.6586	12.935	141.598
24.6586	12.935	127.685
-38.3414	13.935	912.183
-36.3414	13.935	870.159
-34.3414	13.935	938.966
-32.3414	13.935	652.828
-30.3414	13.935	934.728
-28.3414	13.935	586.992
-26.3414	13.935	515.412
-24.3414	13.935	343.244
-22.3414	13.935	717.104
-20.3414	13.935	517.915
-18.3414	13.935	693.032
-16.3414	13.935	524.392
-14.3414	13.935	1070.66
-12.3414	13.935	384.584
-10.3414	13.935	90.4743
-8.341423	13.935	224.98
-6.341423	13.935	389.155
-4.341423	13.935	594.404
-2.341423	13.935	260.406
-0.341423	13.935	453.856
1.658577	13.935	221.853
3.658577	13.935	111.42
5.658577	13.935	29.9031
7.658577	13.935	821.567
9.658577	13.935	568.436
11.6586	13.935	389.819
13.6586	13.935	53.3722
15.6586	13.935	12.843
17.6586	13.935	7.562859
19.6586	13.935	0.000000
21.6586	13.935	28.4545
23.6586	13.935	13.2888
-39.3414	14.935	1125.64
-37.3414	14.935	1048.39
-35.3414	14.935	1042.91
-33.3414	14.935	712.998
-31.3414	14.935	739.267
-29.3414	14.935	489.636
-27.3414	14.935	556.931
-25.3414	14.935	515.599
-23.3414	14.935	144.372
-21.3414	14.935	786.829
-19.3414	14.935	482.566
-17.3414	14.935	478.616
-15.3414	14.935	655.064
-13.3414	14.935	738.307
-11.3414	14.935	236.181
-9.341423	14.935	38.14
-7.341423	14.935	784.253
-5.341423	14.935	316.413
-3.341423	14.935	329.324
-1.341423	14.935	626.898
0.658577	14.935	267.199
2.658577	14.935	475.093
4.658577	14.935	6.428637
6.658577	14.935	25.3151
8.658577	14.935	512.262
10.6586	14.935	514.249
12.6586	14.935	556.893
14.6586	14.935	2.512001
16.6586	14.935	0.301437
18.6586	14.935	0.000000
20.6586	14.935	0.000000
22.6586	14.935	0.000000
24.6586	14.935	0.000000
-38.3414	15.935	1090.44
-36.3414	15.935	812.037
-34.3414	15.935	737.962
-32.3414	15.935	832.868
-30.3414	15.935	436.368
-28.3414	15.935	586.748
-26.3414	15.935	623.67
-24.3414	15.935	357.04
-22.3414	15.935	28.0197
-20.3414	15.935	262.211
-18.3414	15.935	523.338
-16.3414	15.935	1006.6
-14.3414	15.935	1163.96
-12.3414	15.935	1202.43
-10.3414	15.935	25.759
-8.341423	15.935	46.8068
-6.341423	15.935	350.962
-4.341423	15.935	71.902
-2.341423	15.935	220.89
-0.341423	15.935	455.42
1.658577	15.935	594.758
3.658577	15.935	261.005
5.658577	15.935	2.698369
7.658577	15.935	11.3486
9.658577	15.935	658.515
11.6586	15.935	109.452
13.6586	15.935	113.617
15.6586	15.935	14.1034
17.6586	15.935	0.000000
19.6586	15.935	0.000000
21.6586	15.935	6.413437
23.6586	15.935	0.000000
24.6586	15.935	0.921370