File: data/derived_data/raman/20170920_Gr-NH2_for_Radisurf/20170920 Gr-NH for Radisurf map 2/D pos.txt
#XList		#YList		#IList
-39.3414	-21.065	1357.72
-37.3414	-21.065	1356
-35.3414	-21.065	1354.95
-33.3414	-21.065	1352.92
-31.3414	-21.065	1353.66
-29.3414	-21.065	1353.29
-27.3414	-21.065	1353.03
-25.3414	-21.065	1353.75
-23.3414	-21.065	1363.64
-21.3414	-21.065	1354.54
-19.3414	-21.065	1366.5
-17.3414	-21.065	1357.68
-15.3414	-21.065	1352.16
-13.3414	-21.065	1351.52
-11.3414	-21.065	1352.71
-9.341423	-21.065	1359.82
-7.341423	-21.065	1353.65
-5.341423	-21.065	1352.4
-3.341423	-21.065	1357.95
-1.341423	-21.065	1354.4
0.658577	-21.065	1352.49
2.658577	-21.065	1352.06
4.658577	-21.065	1355.31
6.658577	-21.065	1380
8.658577	-21.065	1350.68
10.6586	-21.065	1353.62
12.6586	-21.065	1353.56
14.6586	-21.065	1352.03
16.6586	-21.065	1357.35
18.6586	-21.065	1352.98
20.6586	-21.065	1353.43
22.6586	-21.065	1362.52
24.6586	-21.065	1369
-38.3414	-20.065	1356.55
-36.3414	-20.065	1355.83
-34.3414	-20.065	1355.38
-32.3414	-20.065	1352.57
-30.3414	-20.065	1353.8
-28.3414	-20.065	1353.27
-26.3414	-20.065	1352.99
-24.3414	-20.065	1352.92
-22.3414	-20.065	1357.27
-20.3414	-20.065	1353.49
-18.3414	-20.065	1353.73
-16.3414	-20.065	1351.95
-14.3414	-20.065	1352.61
-12.3414	-20.065	1352.6
-10.3414	-20.065	1358.92
-8.341423	-20.065	1354.35
-6.341423	-20.065	1353.07
-4.341423	-20.065	1354.96
-2.341423	-20.065	1353.74
-0.341423	-20.065	1355.19
1.658577	-20.065	1354.12
3.658577	-20.065	1356.23
5.658577	-20.065	1358.13
7.658577	-20.065	1372.25
9.658577	-20.065	1352.7
11.6586	-20.065	1354.2
13.6586	-20.065	1352.62
15.6586	-20.065	1355.11
17.6586	-20.065	1352.55
19.6586	-20.065	1354.12
21.6586	-20.065	1353.33
23.6586	-20.065	1343.31
-39.3414	-19.065	1356.33
-37.3414	-19.065	1355.1
-35.3414	-19.065	1354.38
-33.3414	-19.065	1354.62
-31.3414	-19.065	1354.42
-29.3414	-19.065	1353.35
-27.3414	-19.065	1353.49
-25.3414	-19.065	1353.05
-23.3414	-19.065	1353.12
-21.3414	-19.065	1352.22
-19.3414	-19.065	1353.12
-17.3414	-19.065	1352.85
-15.3414	-19.065	1352.38
-13.3414	-19.065	1352.15
-11.3414	-19.065	1354.55
-9.341423	-19.065	1354.25
-7.341423	-19.065	1352.95
-5.341423	-19.065	1352.89
-3.341423	-19.065	1351.75
-1.341423	-19.065	1354.97
0.658577	-19.065	1355
2.658577	-19.065	1355.86
4.658577	-19.065	1355.57
6.658577	-19.065	1353.87
8.658577	-19.065	1357.77
10.6586	-19.065	1354.49
12.6586	-19.065	1353.25
14.6586	-19.065	1354.11
16.6586	-19.065	1352.85
18.6586	-19.065	1352.27
20.6586	-19.065	1353.3
22.6586	-19.065	1364.37
24.6586	-19.065	1354.53
-38.3414	-18.065	1355.34
-36.3414	-18.065	1356.02
-34.3414	-18.065	1351.94
-32.3414	-18.065	1353.56
-30.3414	-18.065	1351.45
-28.3414	-18.065	1353.36
-26.3414	-18.065	1352.7
-24.3414	-18.065	1353.06
-22.3414	-18.065	1353.29
-20.3414	-18.065	1352.35
-18.3414	-18.065	1351.23
-16.3414	-18.065	1351.48
-14.3414	-18.065	1352.79
-12.3414	-18.065	1352.91
-10.3414	-18.065	1353.05
-8.341423	-18.065	1353.59
-6.341423	-18.065	1352.8
-4.341423	-18.065	1353.16
-2.341423	-18.065	1352.53
-0.341423	-18.065	1353.67
1.658577	-18.065	1355.79
3.658577	-18.065	1355.76
5.658577	-18.065	1353.23
7.658577	-18.065	1352.87
9.658577	-18.065	1354.2
11.6586	-18.065	1354.11
13.6586	-18.065	1353.22
15.6586	-18.065	1354.19
17.6586	-18.065	1353.62
19.6586	-18.065	1354.66
21.6586	-18.065	1355.65
23.6586	-18.065	1353.32
-39.3414	-17.065	1355.86
-37.3414	-17.065	1353.29
-35.3414	-17.065	1360.23
-33.3414	-17.065	1356.1
-31.3414	-17.065	1353.2
-29.3414	-17.065	1353.66
-27.3414	-17.065	1353.62
-25.3414	-17.065	1352.7
-23.3414	-17.065	1353.51
-21.3414	-17.065	1352.75
-19.3414	-17.065	1350.06
-17.3414	-17.065	1352.92
-15.3414	-17.065	1352.22
-13.3414	-17.065	1352.11
-11.3414	-17.065	1354.34
-9.341423	-17.065	1353.53
-7.341423	-17.065	1355.41
-5.341423	-17.065	1352.31
-3.341423	-17.065	1352.36
-1.341423	-17.065	1353.25
0.658577	-17.065	1356.6
2.658577	-17.065	1354.22
4.658577	-17.065	1352.71
6.658577	-17.065	1354.11
8.658577	-17.065	1352.66
10.6586	-17.065	1353.39
12.6586	-17.065	1354.89
14.6586	-17.065	1353.97
16.6586	-17.065	1356.06
18.6586	-17.065	1353.62
20.6586	-17.065	1356.11
22.6586	-17.065	1352.26
24.6586	-17.065	1352.27
-38.3414	-16.065	1353.53
-36.3414	-16.065	1355.41
-34.3414	-16.065	1354.43
-32.3414	-16.065	1353.39
-30.3414	-16.065	1353.66
-28.3414	-16.065	1353.53
-26.3414	-16.065	1353.39
-24.3414	-16.065	1354.23
-22.3414	-16.065	1353.81
-20.3414	-16.065	1354.87
-18.3414	-16.065	1355.95
-16.3414	-16.065	1352.69
-14.3414	-16.065	1353.5
-12.3414	-16.065	1352.68
-10.3414	-16.065	1353.04
-8.341423	-16.065	1352.06
-6.341423	-16.065	1354.07
-4.341423	-16.065	1354.32
-2.341423	-16.065	1357.65
-0.341423	-16.065	1354.89
1.658577	-16.065	1355.85
3.658577	-16.065	1359.13
5.658577	-16.065	1352.49
7.658577	-16.065	1353.91
9.658577	-16.065	1353.45
11.6586	-16.065	1354.18
13.6586	-16.065	1352.88
15.6586	-16.065	1352.94
17.6586	-16.065	1354.57
19.6586	-16.065	1352.69
21.6586	-16.065	1353.04
23.6586	-16.065	1353.09
-39.3414	-15.065	1354.88
-37.3414	-15.065	1354.31
-35.3414	-15.065	1353.47
-33.3414	-15.065	1354.25
-31.3414	-15.065	1354.2
-29.3414	-15.065	1353.87
-27.3414	-15.065	1353.8
-25.3414	-15.065	1353.9
-23.3414	-15.065	1353.41
-21.3414	-15.065	1352.94
-19.3414	-15.065	1358.79
-17.3414	-15.065	1352.31
-15.3414	-15.065	1352.73
-13.3414	-15.065	1353.89
-11.3414	-15.065	1353.11
-9.341423	-15.065	1353.32
-7.341423	-15.065	1353.02
-5.341423	-15.065	1354.58
-3.341423	-15.065	1355.15
-1.341423	-15.065	1356.48
0.658577	-15.065	1354.34
2.658577	-15.065	1353.56
4.658577	-15.065	1355.42
6.658577	-15.065	1353.19
8.658577	-15.065	1353.55
10.6586	-15.065	1352.65
12.6586	-15.065	1352.95
14.6586	-15.065	1355.03
16.6586	-15.065	1350.74
18.6586	-15.065	1356.41
20.6586	-15.065	1355.49
22.6586	-15.065	1353.04
24.6586	-15.065	1352.59
-38.3414	-14.065	1355.5
-36.3414	-14.065	1353.2
-34.3414	-14.065	1353.83
-32.3414	-14.065	1353.72
-30.3414	-14.065	1353.28
-28.3414	-14.065	1354.42
-26.3414	-14.065	1353.92
-24.3414	-14.065	1354.44
-22.3414	-14.065	1353.66
-20.3414	-14.065	1352.6
-18.3414	-14.065	1354.31
-16.3414	-14.065	1353.57
-14.3414	-14.065	1352.29
-12.3414	-14.065	1353.08
-10.3414	-14.065	1353.28
-8.341423	-14.065	1353.34
-6.341423	-14.065	1354.21
-4.341423	-14.065	1353.61
-2.341423	-14.065	1354.36
-0.341423	-14.065	1353.93
1.658577	-14.065	1356.32
3.658577	-14.065	1358.99
5.658577	-14.065	1356.77
7.658577	-14.065	1353.69
9.658577	-14.065	1354.91
11.6586	-14.065	1355.61
13.6586	-14.065	1353.3
15.6586	-14.065	1355.86
17.6586	-14.065	1358.01
19.6586	-14.065	1355.98
21.6586	-14.065	1352.21
23.6586	-14.065	1353.78
-39.3414	-13.065	1353
-37.3414	-13.065	1353.82
-35.3414	-13.065	1353.82
-33.3414	-13.065	1354.25
-31.3414	-13.065	1353.41
-29.3414	-13.065	1354.32
-27.3414	-13.065	1353.72
-25.3414	-13.065	1354.03
-23.3414	-13.065	1354.01
-21.3414	-13.065	1355.13
-19.3414	-13.065	1352.94
-17.3414	-13.065	1353.87
-15.3414	-13.065	1355.75
-13.3414	-13.065	1353.65
-11.3414	-13.065	1352.97
-9.341423	-13.065	1354.98
-7.341423	-13.065	1354.19
-5.341423	-13.065	1354.57
-3.341423	-13.065	1354.12
-1.341423	-13.065	1356.97
0.658577	-13.065	1354.68
2.658577	-13.065	1355.11
4.658577	-13.065	1356.56
6.658577	-13.065	1355.71
8.658577	-13.065	1354.45
10.6586	-13.065	1354.28
12.6586	-13.065	1352.91
14.6586	-13.065	1354.41
16.6586	-13.065	1353.33
18.6586	-13.065	1353.97
20.6586	-13.065	1353.27
22.6586	-13.065	1355.24
24.6586	-13.065	1355.63
-38.3414	-12.065	1353.09
-36.3414	-12.065	1353.86
-34.3414	-12.065	1353.92
-32.3414	-12.065	1353.71
-30.3414	-12.065	1353.93
-28.3414	-12.065	1352.44
-26.3414	-12.065	1353.76
-24.3414	-12.065	1352.83
-22.3414	-12.065	1353.15
-20.3414	-12.065	1358.67
-18.3414	-12.065	1355.01
-16.3414	-12.065	1354.59
-14.3414	-12.065	1356.11
-12.3414	-12.065	1352.57
-10.3414	-12.065	1354.09
-8.341423	-12.065	1353.89
-6.341423	-12.065	1354.47
-4.341423	-12.065	1355.43
-2.341423	-12.065	1355.15
-0.341423	-12.065	1355.32
1.658577	-12.065	1355.4
3.658577	-12.065	1355.13
5.658577	-12.065	1357.34
7.658577	-12.065	1354.15
9.658577	-12.065	1353.22
11.6586	-12.065	1353.55
13.6586	-12.065	1353.98
15.6586	-12.065	1352.69
17.6586	-12.065	1353.35
19.6586	-12.065	1353.12
21.6586	-12.065	1356.31
23.6586	-12.065	1355.21
-39.3414	-11.065	1353.59
-37.3414	-11.065	1354.19
-35.3414	-11.065	1353.64
-33.3414	-11.065	1354.23
-31.3414	-11.065	1353.81
-29.3414	-11.065	1353.08
-27.3414	-11.065	1355.03
-25.3414	-11.065	1353.61
-23.3414	-11.065	1353
-21.3414	-11.065	1356.45
-19.3414	-11.065	1353.1
-17.3414	-11.065	1355.42
-15.3414	-11.065	1354.67
-13.3414	-11.065	1356.16
-11.3414	-11.065	1354.01
-9.341423	-11.065	1353.56
-7.341423	-11.065	1355.69
-5.341423	-11.065	1354.01
-3.341423	-11.065	1355.4
-1.341423	-11.065	1354.93
0.658577	-11.065	1356.35
2.658577	-11.065	1353.12
4.658577	-11.065	1359.53
6.658577	-11.065	1354.57
8.658577	-11.065	1352
10.6586	-11.065	1320
12.6586	-11.065	1359.79
14.6586	-11.065	1352.74
16.6586	-11.065	1353.16
18.6586	-11.065	1354.92
20.6586	-11.065	1354.6
22.6586	-11.065	1354.97
24.6586	-11.065	1353.66
-38.3414	-10.065	1354.21
-36.3414	-10.065	1353.33
-34.3414	-10.065	1353.75
-32.3414	-10.065	1353.87
-30.3414	-10.065	1353.39
-28.3414	-10.065	1352.89
-26.3414	-10.065	1354.87
-24.3414	-10.065	1353.36
-22.3414	-10.065	1352.71
-20.3414	-10.065	1353.77
-18.3414	-10.065	1352.95
-16.3414	-10.065	1355.27
-14.3414	-10.065	1355.47
-12.3414	-10.065	1354.17
-10.3414	-10.065	1356.45
-8.341423	-10.065	1354.95
-6.341423	-10.065	1357.21
-4.341423	-10.065	1356.15
-2.341423	-10.065	1356.86
-0.341423	-10.065	1356.48
1.658577	-10.065	1354.1
3.658577	-10.065	1358.1
5.658577	-10.065	1357.72
7.658577	-10.065	1352.72
9.658577	-10.065	1370.07
11.6586	-10.065	1337.62
13.6586	-10.065	1355.72
15.6586	-10.065	1353.53
17.6586	-10.065	1354.7
19.6586	-10.065	1353.16
21.6586	-10.065	1355.86
23.6586	-10.065	1355.38
-39.3414	-9.065000	1354.38
-37.3414	-9.065000	1353.66
-35.3414	-9.065000	1353.84
-33.3414	-9.065000	1354.07
-31.3414	-9.065000	1353.27
-29.3414	-9.065000	1353.02
-27.3414	-9.065000	1354.08
-25.3414	-9.065000	1355.16
-23.3414	-9.065000	1355.89
-21.3414	-9.065000	1353.94
-19.3414	-9.065000	1354.06
-17.3414	-9.065000	1355.11
-15.3414	-9.065000	1354.58
-13.3414	-9.065000	1352.74
-11.3414	-9.065000	1355.17
-9.341423	-9.065000	1356.33
-7.341423	-9.065000	1352.77
-5.341423	-9.065000	1360.84
-3.341423	-9.065000	1355.88
-1.341423	-9.065000	1357.99
0.658577	-9.065000	1353.79
2.658577	-9.065000	1354.46
4.658577	-9.065000	1355.41
6.658577	-9.065000	1353.4
8.658577	-9.065000	1350.69
10.6586	-9.065000	1346.3
12.6586	-9.065000	1355.24
14.6586	-9.065000	1354
16.6586	-9.065000	1356.03
18.6586	-9.065000	1354.57
20.6586	-9.065000	1357.4
22.6586	-9.065000	1355.63
24.6586	-9.065000	1356.54
-38.3414	-8.065000	1353.76
-36.3414	-8.065000	1353.47
-34.3414	-8.065000	1353.34
-32.3414	-8.065000	1353.82
-30.3414	-8.065000	1353.91
-28.3414	-8.065000	1354.52
-26.3414	-8.065000	1356.34
-24.3414	-8.065000	1355.06
-22.3414	-8.065000	1361.58
-20.3414	-8.065000	1358.23
-18.3414	-8.065000	1355.17
-16.3414	-8.065000	1353.27
-14.3414	-8.065000	1353.32
-12.3414	-8.065000	1353.89
-10.3414	-8.065000	1353.6
-8.341423	-8.065000	1352.21
-6.341423	-8.065000	1357.33
-4.341423	-8.065000	1355.4
-2.341423	-8.065000	1355.76
-0.341423	-8.065000	1354.9
1.658577	-8.065000	1353.61
3.658577	-8.065000	1353.65
5.658577	-8.065000	1353.93
7.658577	-8.065000	1352.7
9.658577	-8.065000	1336.68
11.6586	-8.065000	1344.13
13.6586	-8.065000	1358
15.6586	-8.065000	1354.2
17.6586	-8.065000	1355.81
19.6586	-8.065000	1356.62
21.6586	-8.065000	1354.06
23.6586	-8.065000	1354.05
-39.3414	-7.065000	1352.59
-37.3414	-7.065000	1354.36
-35.3414	-7.065000	1353.88
-33.3414	-7.065000	1353.96
-31.3414	-7.065000	1353.86
-29.3414	-7.065000	1353.5
-27.3414	-7.065000	1355.21
-25.3414	-7.065000	1353.63
-23.3414	-7.065000	1354.51
-21.3414	-7.065000	1358.39
-19.3414	-7.065000	1352.76
-17.3414	-7.065000	1354.16
-15.3414	-7.065000	1354.15
-13.3414	-7.065000	1352.62
-11.3414	-7.065000	1353.86
-9.341423	-7.065000	1355.33
-7.341423	-7.065000	1352.31
-5.341423	-7.065000	1352.04
-3.341423	-7.065000	1353.88
-1.341423	-7.065000	1350.99
0.658577	-7.065000	1355.76
2.658577	-7.065000	1353.31
4.658577	-7.065000	1353.86
6.658577	-7.065000	1353.55
8.658577	-7.065000	1349.65
10.6586	-7.065000	1353.76
12.6586	-7.065000	1358.83
14.6586	-7.065000	1352.27
16.6586	-7.065000	1354.94
18.6586	-7.065000	1352.52
20.6586	-7.065000	1356.1
22.6586	-7.065000	1353.3
24.6586	-7.065000	1354.11
-38.3414	-6.065000	1354.02
-36.3414	-6.065000	1353.79
-34.3414	-6.065000	1354.02
-32.3414	-6.065000	1354.31
-30.3414	-6.065000	1354.63
-28.3414	-6.065000	1352.87
-26.3414	-6.065000	1352.59
-24.3414	-6.065000	1353.11
-22.3414	-6.065000	1352.86
-20.3414	-6.065000	1352.06
-18.3414	-6.065000	1359.72
-16.3414	-6.065000	1354.95
-14.3414	-6.065000	1353.54
-12.3414	-6.065000	1353.63
-10.3414	-6.065000	1354.21
-8.341423	-6.065000	1355.27
-6.341423	-6.065000	1354.88
-4.341423	-6.065000	1364.41
-2.341423	-6.065000	1351.92
-0.341423	-6.065000	1367.8
1.658577	-6.065000	1355.55
3.658577	-6.065000	1352.78
5.658577	-6.065000	1352.52
7.658577	-6.065000	1352.4
9.658577	-6.065000	1361.02
11.6586	-6.065000	1356.47
13.6586	-6.065000	1352.06
15.6586	-6.065000	1354.92
17.6586	-6.065000	1354.48
19.6586	-6.065000	1354.96
21.6586	-6.065000	1355.77
23.6586	-6.065000	1353.81
-39.3414	-5.065000	1354.3
-37.3414	-5.065000	1352.7
-35.3414	-5.065000	1353.75
-33.3414	-5.065000	1354.54
-31.3414	-5.065000	1353.68
-29.3414	-5.065000	1353.22
-27.3414	-5.065000	1352.9
-25.3414	-5.065000	1353.13
-23.3414	-5.065000	1352.83
-21.3414	-5.065000	1352.99
-19.3414	-5.065000	1361.14
-17.3414	-5.065000	1359.56
-15.3414	-5.065000	1354.19
-13.3414	-5.065000	1353.67
-11.3414	-5.065000	1355.54
-9.341423	-5.065000	1355.58
-7.341423	-5.065000	1354.5
-5.341423	-5.065000	1355.58
-3.341423	-5.065000	1380
-1.341423	-5.065000	1354.52
0.658577	-5.065000	1353.71
2.658577	-5.065000	1357.91
4.658577	-5.065000	1352.5
6.658577	-5.065000	1354.31
8.658577	-5.065000	1350.18
10.6586	-5.065000	1353.6
12.6586	-5.065000	1354.97
14.6586	-5.065000	1353.82
16.6586	-5.065000	1352.95
18.6586	-5.065000	1354.24
20.6586	-5.065000	1355.01
22.6586	-5.065000	1356.76
24.6586	-5.065000	1356.23
-38.3414	-4.065000	1357.23
-36.3414	-4.065000	1352.74
-34.3414	-4.065000	1354.13
-32.3414	-4.065000	1353.41
-30.3414	-4.065000	1355.09
-28.3414	-4.065000	1354.33
-26.3414	-4.065000	1353.3
-24.3414	-4.065000	1354.18
-22.3414	-4.065000	1353.82
-20.3414	-4.065000	1354.14
-18.3414	-4.065000	1356.9
-16.3414	-4.065000	1355.91
-14.3414	-4.065000	1354.48
-12.3414	-4.065000	1353.94
-10.3414	-4.065000	1356.5
-8.341423	-4.065000	1355.43
-6.341423	-4.065000	1355.41
-4.341423	-4.065000	1356.68
-2.341423	-4.065000	1352.54
-0.341423	-4.065000	1355.38
1.658577	-4.065000	1353.06
3.658577	-4.065000	1362.01
5.658577	-4.065000	1353.41
7.658577	-4.065000	1352.74
9.658577	-4.065000	1352.73
11.6586	-4.065000	1354.93
13.6586	-4.065000	1353.19
15.6586	-4.065000	1355.38
17.6586	-4.065000	1351.95
19.6586	-4.065000	1352.37
21.6586	-4.065000	1352.49
23.6586	-4.065000	1356.07
-39.3414	-3.065000	1379.69
-37.3414	-3.065000	1355.36
-35.3414	-3.065000	1353.67
-33.3414	-3.065000	1352.51
-31.3414	-3.065000	1358.06
-29.3414	-3.065000	1353.53
-27.3414	-3.065000	1355.93
-25.3414	-3.065000	1353.39
-23.3414	-3.065000	1353.15
-21.3414	-3.065000	1353.42
-19.3414	-3.065000	1353.66
-17.3414	-3.065000	1354.71
-15.3414	-3.065000	1357.34
-13.3414	-3.065000	1354.21
-11.3414	-3.065000	1354.91
-9.341423	-3.065000	1356.15
-7.341423	-3.065000	1356.43
-5.341423	-3.065000	1356.56
-3.341423	-3.065000	1355.17
-1.341423	-3.065000	1351.84
0.658577	-3.065000	1351.82
2.658577	-3.065000	1360.33
4.658577	-3.065000	1354.48
6.658577	-3.065000	1354.11
8.658577	-3.065000	1354.21
10.6586	-3.065000	1353.68
12.6586	-3.065000	1354.06
14.6586	-3.065000	1353.12
16.6586	-3.065000	1352.05
18.6586	-3.065000	1352.56
20.6586	-3.065000	1353.41
22.6586	-3.065000	1353.82
24.6586	-3.065000	1356.04
-38.3414	-2.065000	1354.43
-36.3414	-2.065000	1353.9
-34.3414	-2.065000	1354.61
-32.3414	-2.065000	1355.34
-30.3414	-2.065000	1351.57
-28.3414	-2.065000	1342.02
-26.3414	-2.065000	1353.16
-24.3414	-2.065000	1353.7
-22.3414	-2.065000	1353.32
-20.3414	-2.065000	1353.94
-18.3414	-2.065000	1354.33
-16.3414	-2.065000	1355.45
-14.3414	-2.065000	1354.72
-12.3414	-2.065000	1354.16
-10.3414	-2.065000	1355.86
-8.341423	-2.065000	1356.05
-6.341423	-2.065000	1356.66
-4.341423	-2.065000	1358.03
-2.341423	-2.065000	1353.25
-0.341423	-2.065000	1352.21
1.658577	-2.065000	1352.54
3.658577	-2.065000	1351.42
5.658577	-2.065000	1353.86
7.658577	-2.065000	1354.96
9.658577	-2.065000	1353.78
11.6586	-2.065000	1354.57
13.6586	-2.065000	1353.84
15.6586	-2.065000	1352.8
17.6586	-2.065000	1352.03
19.6586	-2.065000	1350.82
21.6586	-2.065000	1352.34
23.6586	-2.065000	1355.06
-39.3414	-1.065000	1367.74
-37.3414	-1.065000	1354.78
-35.3414	-1.065000	1356.56
-33.3414	-1.065000	1355.72
-31.3414	-1.065000	1355.57
-29.3414	-1.065000	1351.89
-27.3414	-1.065000	1358.69
-25.3414	-1.065000	1352.75
-23.3414	-1.065000	1355.97
-21.3414	-1.065000	1355.32
-19.3414	-1.065000	1354.41
-17.3414	-1.065000	1356.58
-15.3414	-1.065000	1354.49
-13.3414	-1.065000	1353.93
-11.3414	-1.065000	1355.03
-9.341423	-1.065000	1355.66
-7.341423	-1.065000	1356.41
-5.341423	-1.065000	1355.32
-3.341423	-1.065000	1357.66
-1.341423	-1.065000	1353.21
0.658577	-1.065000	1351.98
2.658577	-1.065000	1353.1
4.658577	-1.065000	1354.62
6.658577	-1.065000	1355.1
8.658577	-1.065000	1355.95
10.6586	-1.065000	1352.63
12.6586	-1.065000	1354.72
14.6586	-1.065000	1352.61
16.6586	-1.065000	1353.03
18.6586	-1.065000	1354.22
20.6586	-1.065000	1351.95
22.6586	-1.065000	1354.03
24.6586	-1.065000	1356.17
-38.3414	-0.065000	1359.53
-36.3414	-0.065000	1361.16
-34.3414	-0.065000	1361.08
-32.3414	-0.065000	1356.94
-30.3414	-0.065000	1360.15
-28.3414	-0.065000	1359.66
-26.3414	-0.065000	1356.35
-24.3414	-0.065000	1352.44
-22.3414	-0.065000	1353.88
-20.3414	-0.065000	1357.18
-18.3414	-0.065000	1353.98
-16.3414	-0.065000	1354.57
-14.3414	-0.065000	1354.17
-12.3414	-0.065000	1355.05
-10.3414	-0.065000	1355.68
-8.341423	-0.065000	1355.53
-6.341423	-0.065000	1355.46
-4.341423	-0.065000	1357.15
-2.341423	-0.065000	1352.75
-0.341423	-0.065000	1351.52
1.658577	-0.065000	1351.66
3.658577	-0.065000	1353.62
5.658577	-0.065000	1354.51
7.658577	-0.065000	1354.57
9.658577	-0.065000	1352.46
11.6586	-0.065000	1354.47
13.6586	-0.065000	1353.44
15.6586	-0.065000	1353.68
17.6586	-0.065000	1353.97
19.6586	-0.065000	1355.52
21.6586	-0.065000	1351.2
23.6586	-0.065000	1355.19
-39.3414	0.935000	1361.78
-37.3414	0.935000	1380
-35.3414	0.935000	1359.44
-33.3414	0.935000	1357.18
-31.3414	0.935000	1354.5
-29.3414	0.935000	1353.02
-27.3414	0.935000	1354.4
-25.3414	0.935000	1354.44
-23.3414	0.935000	1353.77
-21.3414	0.935000	1353.11
-19.3414	0.935000	1352.62
-17.3414	0.935000	1356.81
-15.3414	0.935000	1358.36
-13.3414	0.935000	1354.31
-11.3414	0.935000	1355.32
-9.341423	0.935000	1354.89
-7.341423	0.935000	1355.74
-5.341423	0.935000	1355.43
-3.341423	0.935000	1355.06
-1.341423	0.935000	1352.37
0.658577	0.935000	1351.75
2.658577	0.935000	1353.95
4.658577	0.935000	1354.54
6.658577	0.935000	1354.38
8.658577	0.935000	1353.22
10.6586	0.935000	1353.43
12.6586	0.935000	1353.92
14.6586	0.935000	1355.4
16.6586	0.935000	1353.42
18.6586	0.935000	1353.08
20.6586	0.935000	1350.92
22.6586	0.935000	1352.05
24.6586	0.935000	1355.37
-38.3414	1.935000	1363.45
-36.3414	1.935000	1357.67
-34.3414	1.935000	1358.44
-32.3414	1.935000	1353.15
-30.3414	1.935000	1353.72
-28.3414	1.935000	1358.19
-26.3414	1.935000	1354.25
-24.3414	1.935000	1354.93
-22.3414	1.935000	1353.01
-20.3414	1.935000	1352.98
-18.3414	1.935000	1354.83
-16.3414	1.935000	1362.59
-14.3414	1.935000	1354.7
-12.3414	1.935000	1355.55
-10.3414	1.935000	1354.39
-8.341423	1.935000	1354.01
-6.341423	1.935000	1354.74
-4.341423	1.935000	1353.42
-2.341423	1.935000	1352.96
-0.341423	1.935000	1352.19
1.658577	1.935000	1353.6
3.658577	1.935000	1355.18
5.658577	1.935000	1353.74
7.658577	1.935000	1352.04
9.658577	1.935000	1352.42
11.6586	1.935000	1352.03
13.6586	1.935000	1352.99
15.6586	1.935000	1353.16
17.6586	1.935000	1353.63
19.6586	1.935000	1352.36
21.6586	1.935000	1351.19
23.6586	1.935000	1352.1
-39.3414	2.935000	1357.79
-37.3414	2.935000	1354.54
-35.3414	2.935000	1354.58
-33.3414	2.935000	1357.09
-31.3414	2.935000	1353.39
-29.3414	2.935000	1353.9
-27.3414	2.935000	1356.36
-25.3414	2.935000	1356.17
-23.3414	2.935000	1353.53
-21.3414	2.935000	1353.6
-19.3414	2.935000	1352.54
-17.3414	2.935000	1355.17
-15.3414	2.935000	1362.85
-13.3414	2.935000	1356.4
-11.3414	2.935000	1355.59
-9.341423	2.935000	1354.66
-7.341423	2.935000	1354.67
-5.341423	2.935000	1353.79
-3.341423	2.935000	1352.69
-1.341423	2.935000	1352.75
0.658577	2.935000	1352.21
2.658577	2.935000	1354.83
4.658577	2.935000	1357.35
6.658577	2.935000	1355.15
8.658577	2.935000	1354.24
10.6586	2.935000	1351.9
12.6586	2.935000	1351.89
14.6586	2.935000	1353.35
16.6586	2.935000	1353.11
18.6586	2.935000	1353.62
20.6586	2.935000	1353.84
22.6586	2.935000	1351.45
24.6586	2.935000	1352.57
-38.3414	3.935000	1354.19
-36.3414	3.935000	1355.81
-34.3414	3.935000	1356.17
-32.3414	3.935000	1356.06
-30.3414	3.935000	1353.74
-28.3414	3.935000	1356.76
-26.3414	3.935000	1354.36
-24.3414	3.935000	1354.37
-22.3414	3.935000	1355.43
-20.3414	3.935000	1353.63
-18.3414	3.935000	1354.92
-16.3414	3.935000	1353.99
-14.3414	3.935000	1364.28
-12.3414	3.935000	1354.22
-10.3414	3.935000	1354.48
-8.341423	3.935000	1358.5
-6.341423	3.935000	1356.2
-4.341423	3.935000	1353.53
-2.341423	3.935000	1352.37
-0.341423	3.935000	1351.45
1.658577	3.935000	1352.39
3.658577	3.935000	1356.59
5.658577	3.935000	1353.49
7.658577	3.935000	1356.39
9.658577	3.935000	1352.48
11.6586	3.935000	1353.97
13.6586	3.935000	1353.08
15.6586	3.935000	1353.1
17.6586	3.935000	1353.62
19.6586	3.935000	1352.37
21.6586	3.935000	1351.36
23.6586	3.935000	1351.86
-39.3414	4.935000	1354.94
-37.3414	4.935000	1354.7
-35.3414	4.935000	1353.98
-33.3414	4.935000	1355.66
-31.3414	4.935000	1353.34
-29.3414	4.935000	1353.77
-27.3414	4.935000	1354.35
-25.3414	4.935000	1355.93
-23.3414	4.935000	1356.03
-21.3414	4.935000	1355.48
-19.3414	4.935000	1352.98
-17.3414	4.935000	1352.55
-15.3414	4.935000	1354.46
-13.3414	4.935000	1355.45
-11.3414	4.935000	1353.67
-9.341423	4.935000	1354.93
-7.341423	4.935000	1355
-5.341423	4.935000	1354.77
-3.341423	4.935000	1351.56
-1.341423	4.935000	1352.23
0.658577	4.935000	1351.91
2.658577	4.935000	1353.61
4.658577	4.935000	1355.24
6.658577	4.935000	1354.38
8.658577	4.935000	1353.82
10.6586	4.935000	1353.78
12.6586	4.935000	1352.8
14.6586	4.935000	1353.3
16.6586	4.935000	1351.99
18.6586	4.935000	1352.56
20.6586	4.935000	1353.58
22.6586	4.935000	1352.85
24.6586	4.935000	1351.47
-38.3414	5.935000	1354.34
-36.3414	5.935000	1354.36
-34.3414	5.935000	1352.66
-32.3414	5.935000	1354.25
-30.3414	5.935000	1354.8
-28.3414	5.935000	1352.97
-26.3414	5.935000	1354.34
-24.3414	5.935000	1355.43
-22.3414	5.935000	1354.27
-20.3414	5.935000	1355.87
-18.3414	5.935000	1352.31
-16.3414	5.935000	1352.8
-14.3414	5.935000	1355.74
-12.3414	5.935000	1354.59
-10.3414	5.935000	1354.89
-8.341423	5.935000	1355.51
-6.341423	5.935000	1355.68
-4.341423	5.935000	1357.61
-2.341423	5.935000	1351.74
-0.341423	5.935000	1351.89
1.658577	5.935000	1352.69
3.658577	5.935000	1352.55
5.658577	5.935000	1354.88
7.658577	5.935000	1353.47
9.658577	5.935000	1353.91
11.6586	5.935000	1353.67
13.6586	5.935000	1354.36
15.6586	5.935000	1352.68
17.6586	5.935000	1353.53
19.6586	5.935000	1351.77
21.6586	5.935000	1352.38
23.6586	5.935000	1354.53
-39.3414	6.935000	1354.85
-37.3414	6.935000	1354.6
-35.3414	6.935000	1354
-33.3414	6.935000	1353.36
-31.3414	6.935000	1353.62
-29.3414	6.935000	1351.41
-27.3414	6.935000	1355.98
-25.3414	6.935000	1355.41
-23.3414	6.935000	1354.32
-21.3414	6.935000	1354.57
-19.3414	6.935000	1352.5
-17.3414	6.935000	1352.64
-15.3414	6.935000	1355.22
-13.3414	6.935000	1354.22
-11.3414	6.935000	1354.35
-9.341423	6.935000	1354.29
-7.341423	6.935000	1355.14
-5.341423	6.935000	1355.19
-3.341423	6.935000	1353.4
-1.341423	6.935000	1352.1
0.658577	6.935000	1352.11
2.658577	6.935000	1353.11
4.658577	6.935000	1353.91
6.658577	6.935000	1354.44
8.658577	6.935000	1354.08
10.6586	6.935000	1354.7
12.6586	6.935000	1353.69
14.6586	6.935000	1356.77
16.6586	6.935000	1353.41
18.6586	6.935000	1351.69
20.6586	6.935000	1352.49
22.6586	6.935000	1356.02
24.6586	6.935000	1353.28
-38.3414	7.935000	1353.67
-36.3414	7.935000	1353.91
-34.3414	7.935000	1354.49
-32.3414	7.935000	1353.42
-30.3414	7.935000	1354.11
-28.3414	7.935000	1355.06
-26.3414	7.935000	1355.37
-24.3414	7.935000	1354.55
-22.3414	7.935000	1354.45
-20.3414	7.935000	1355.32
-18.3414	7.935000	1353.48
-16.3414	7.935000	1354.22
-14.3414	7.935000	1353.98
-12.3414	7.935000	1354.87
-10.3414	7.935000	1354.29
-8.341423	7.935000	1353.98
-6.341423	7.935000	1355.47
-4.341423	7.935000	1354.85
-2.341423	7.935000	1353.07
-0.341423	7.935000	1352.38
1.658577	7.935000	1353.61
3.658577	7.935000	1353.8
5.658577	7.935000	1355.07
7.658577	7.935000	1354.2
9.658577	7.935000	1354.8
11.6586	7.935000	1354.82
13.6586	7.935000	1352.01
15.6586	7.935000	1352.81
17.6586	7.935000	1353.95
19.6586	7.935000	1358
21.6586	7.935000	1352.4
23.6586	7.935000	1354.1
-39.3414	8.935000	1354.2
-37.3414	8.935000	1354.84
-35.3414	8.935000	1354.22
-33.3414	8.935000	1354.29
-31.3414	8.935000	1354.49
-29.3414	8.935000	1354.61
-27.3414	8.935000	1355.41
-25.3414	8.935000	1355.52
-23.3414	8.935000	1354.31
-21.3414	8.935000	1354.63
-19.3414	8.935000	1355.06
-17.3414	8.935000	1354.02
-15.3414	8.935000	1355.2
-13.3414	8.935000	1355.5
-11.3414	8.935000	1354.51
-9.341423	8.935000	1354.67
-7.341423	8.935000	1353.46
-5.341423	8.935000	1353.38
-3.341423	8.935000	1353.56
-1.341423	8.935000	1352.76
0.658577	8.935000	1353.46
2.658577	8.935000	1354.79
4.658577	8.935000	1354.18
6.658577	8.935000	1359.3
8.658577	8.935000	1355.25
10.6586	8.935000	1353.14
12.6586	8.935000	1353.61
14.6586	8.935000	1352.79
16.6586	8.935000	1359.23
18.6586	8.935000	1353.86
20.6586	8.935000	1356.72
22.6586	8.935000	1353.8
24.6586	8.935000	1351.47
-38.3414	9.935000	1354.07
-36.3414	9.935000	1353.67
-34.3414	9.935000	1354.16
-32.3414	9.935000	1355.02
-30.3414	9.935000	1354.23
-28.3414	9.935000	1354.04
-26.3414	9.935000	1355.34
-24.3414	9.935000	1355.39
-22.3414	9.935000	1353.35
-20.3414	9.935000	1353.55
-18.3414	9.935000	1354.76
-16.3414	9.935000	1354.98
-14.3414	9.935000	1354.96
-12.3414	9.935000	1354.61
-10.3414	9.935000	1353.94
-8.341423	9.935000	1353.43
-6.341423	9.935000	1353.34
-4.341423	9.935000	1352.7
-2.341423	9.935000	1354.04
-0.341423	9.935000	1353.75
1.658577	9.935000	1353.42
3.658577	9.935000	1357.37
5.658577	9.935000	1355.69
7.658577	9.935000	1355.33
9.658577	9.935000	1353.84
11.6586	9.935000	1353.92
13.6586	9.935000	1354.09
15.6586	9.935000	1374.17
17.6586	9.935000	1350.04
19.6586	9.935000	1377.04
21.6586	9.935000	1352.63
23.6586	9.935000	1357.47
-39.3414	10.935	1354.65
-37.3414	10.935	1354.52
-35.3414	10.935	1354.11
-33.3414	10.935	1353.77
-31.3414	10.935	1354.63
-29.3414	10.935	1354.96
-27.3414	10.935	1356.26
-25.3414	10.935	1353.29
-23.3414	10.935	1354.89
-21.3414	10.935	1352.94
-19.3414	10.935	1355.73
-17.3414	10.935	1354.47
-15.3414	10.935	1355.03
-13.3414	10.935	1354.9
-11.3414	10.935	1352.96
-9.341423	10.935	1354.38
-7.341423	10.935	1354.65
-5.341423	10.935	1353.12
-3.341423	10.935	1352.79
-1.341423	10.935	1353.5
0.658577	10.935	1355.21
2.658577	10.935	1355.78
4.658577	10.935	1355.63
6.658577	10.935	1357.63
8.658577	10.935	1354.47
10.6586	10.935	1356.78
12.6586	10.935	1354.45
14.6586	10.935	1365.41
16.6586	10.935	1320
18.6586	10.935	1376.27
20.6586	10.935	1352.31
22.6586	10.935	1352.19
24.6586	10.935	1353.19
-38.3414	11.935	1353.97
-36.3414	11.935	1353.68
-34.3414	11.935	1354.02
-32.3414	11.935	1354.09
-30.3414	11.935	1354.22
-28.3414	11.935	1353.99
-26.3414	11.935	1352.94
-24.3414	11.935	1356.36
-22.3414	11.935	1353.98
-20.3414	11.935	1354.59
-18.3414	11.935	1353.88
-16.3414	11.935	1354.05
-14.3414	11.935	1355.15
-12.3414	11.935	1354.27
-10.3414	11.935	1352.49
-8.341423	11.935	1354.01
-6.341423	11.935	1353.27
-4.341423	11.935	1352.64
-2.341423	11.935	1356.51
-0.341423	11.935	1352.74
1.658577	11.935	1356.34
3.658577	11.935	1355.61
5.658577	11.935	1357.02
7.658577	11.935	1352.79
9.658577	11.935	1354.62
11.6586	11.935	1355.18
13.6586	11.935	1351.71
15.6586	11.935	1349.45
17.6586	11.935	1380
19.6586	11.935	1380
21.6586	11.935	1351.6
23.6586	11.935	1352.8
-39.3414	12.935	1353.84
-37.3414	12.935	1353.48
-35.3414	12.935	1354.13
-33.3414	12.935	1354.31
-31.3414	12.935	1354.6
-29.3414	12.935	1354.13
-27.3414	12.935	1353.39
-25.3414	12.935	1354.69
-23.3414	12.935	1352.21
-21.3414	12.935	1353.78
-19.3414	12.935	1354.61
-17.3414	12.935	1353.48
-15.3414	12.935	1355.42
-13.3414	12.935	1354.39
-11.3414	12.935	1352.32
-9.341423	12.935	1355.11
-7.341423	12.935	1353.76
-5.341423	12.935	1355.4
-3.341423	12.935	1352.92
-1.341423	12.935	1353.26
0.658577	12.935	1355.36
2.658577	12.935	1356.55
4.658577	12.935	1356.79
6.658577	12.935	1352.22
8.658577	12.935	1352.07
10.6586	12.935	1356.08
12.6586	12.935	1353.28
14.6586	12.935	1338.03
16.6586	12.935	1380
18.6586	12.935	1360.01
20.6586	12.935	1357.99
22.6586	12.935	1353.72
24.6586	12.935	1351.08
-38.3414	13.935	1353.18
-36.3414	13.935	1354.48
-34.3414	13.935	1353.74
-32.3414	13.935	1354.59
-30.3414	13.935	1353.94
-28.3414	13.935	1352.72
-26.3414	13.935	1352.69
-24.3414	13.935	1352.11
-22.3414	13.935	1353.4
-20.3414	13.935	1354.09
-18.3414	13.935	1353.6
-16.3414	13.935	1354.13
-14.3414	13.935	1353.61
-12.3414	13.935	1354.34
-10.3414	13.935	1354.5
-8.341423	13.935	1356.23
-6.341423	13.935	1353.87
-4.341423	13.935	1354.11
-2.341423	13.935	1353.48
-0.341423	13.935	1353.8
1.658577	13.935	1355.69
3.658577	13.935	1356.65
5.658577	13.935	1363.01
7.658577	13.935	1351.66
9.658577	13.935	1353.92
11.6586	13.935	1354.07
13.6586	13.935	1353.7
15.6586	13.935	1344.06
17.6586	13.935	1380
19.6586	13.935	1380
21.6586	13.935	1379.93
23.6586	13.935	1347.29
-39.3414	14.935	1354.25
-37.3414	14.935	1353.62
-35.3414	14.935	1353.02
-33.3414	14.935	1353.95
-31.3414	14.935	1354.78
-29.3414	14.935	1353.75
-27.3414	14.935	1352.24
-25.3414	14.935	1352.62
-23.3414	14.935	1352.59
-21.3414	14.935	1354.61
-19.3414	14.935	1353.73
-17.3414	14.935	1354.23
-15.3414	14.935	1354.16
-13.3414	14.935	1353.64
-11.3414	14.935	1354.04
-9.341423	14.935	1359.4
-7.341423	14.935	1354.12
-5.341423	14.935	1355.24
-3.341423	14.935	1353.34
-1.341423	14.935	1353.04
0.658577	14.935	1355.94
2.658577	14.935	1357.78
4.658577	14.935	1357.41
6.658577	14.935	1357.28
8.658577	14.935	1351.59
10.6586	14.935	1353.96
12.6586	14.935	1352.2
14.6586	14.935	1369.58
16.6586	14.935	1380
18.6586	14.935	1380
20.6586	14.935	1376.64
22.6586	14.935	1380
24.6586	14.935	1350.37
-38.3414	15.935	1354.37
-36.3414	15.935	1354.78
-34.3414	15.935	1354.68
-32.3414	15.935	1354.65
-30.3414	15.935	1356.25
-28.3414	15.935	1352.33
-26.3414	15.935	1353.52
-24.3414	15.935	1352.72
-22.3414	15.935	1354.02
-20.3414	15.935	1353.52
-18.3414	15.935	1353.24
-16.3414	15.935	1353.08
-14.3414	15.935	1353.15
-12.3414	15.935	1353.56
-10.3414	15.935	1354.98
-8.341423	15.935	1356.92
-6.341423	15.935	1352.96
-4.341423	15.935	1359.99
-2.341423	15.935	1354.52
-0.341423	15.935	1353
1.658577	15.935	1356.38
3.658577	15.935	1352.99
5.658577	15.935	1341.02
7.658577	15.935	1357.21
9.658577	15.935	1353.57
11.6586	15.935	1354.89
13.6586	15.935	1354.33
15.6586	15.935	1379.38
17.6586	15.935	1347.98
19.6586	15.935	1348.47
21.6586	15.935	1356.93
23.6586	15.935	1380
24.6586	15.935	1380