File: data/derived_data/raman/20170920_Gr-NH2_for_Radisurf/20170920 Gr-NH for Radisurf map 2/DDp pos.txt
#XList		#YList		#IList
-39.3414	-21.065	2941.71
-37.3414	-21.065	2922.61
-35.3414	-21.065	2927.66
-33.3414	-21.065	2930.61
-31.3414	-21.065	2933.12
-29.3414	-21.065	2932.93
-27.3414	-21.065	2934.63
-25.3414	-21.065	2938.41
-23.3414	-21.065	2900
-21.3414	-21.065	2936.62
-19.3414	-21.065	2960.47
-17.3414	-21.065	2930.18
-15.3414	-21.065	2930.15
-13.3414	-21.065	2929.83
-11.3414	-21.065	2939.4
-9.341423	-21.065	2918.28
-7.341423	-21.065	2931.8
-5.341423	-21.065	2933.74
-3.341423	-21.065	2920.13
-1.341423	-21.065	2934.06
0.658577	-21.065	2931.09
2.658577	-21.065	2937.04
4.658577	-21.065	2930.04
6.658577	-21.065	2918.04
8.658577	-21.065	2970.51
10.6586	-21.065	2944.05
12.6586	-21.065	2933.88
14.6586	-21.065	2933.31
16.6586	-21.065	2932.51
18.6586	-21.065	2934.61
20.6586	-21.065	2938.12
22.6586	-21.065	2913.78
24.6586	-21.065	2925.25
-38.3414	-20.065	2935.52
-36.3414	-20.065	2947.73
-34.3414	-20.065	2934.57
-32.3414	-20.065	2930.9
-30.3414	-20.065	2936.4
-28.3414	-20.065	2936.55
-26.3414	-20.065	2935.67
-24.3414	-20.065	2935.8
-22.3414	-20.065	2941.07
-20.3414	-20.065	2934.76
-18.3414	-20.065	2936.34
-16.3414	-20.065	2929.21
-14.3414	-20.065	2929.95
-12.3414	-20.065	2931.74
-10.3414	-20.065	2929.75
-8.341423	-20.065	2933.73
-6.341423	-20.065	2935.34
-4.341423	-20.065	2937.48
-2.341423	-20.065	2931.61
-0.341423	-20.065	2932.63
1.658577	-20.065	2940.9
3.658577	-20.065	2934.3
5.658577	-20.065	2944.74
7.658577	-20.065	2900
9.658577	-20.065	2942.13
11.6586	-20.065	2935.36
13.6586	-20.065	2936.63
15.6586	-20.065	2934.8
17.6586	-20.065	2934.35
19.6586	-20.065	2931.11
21.6586	-20.065	2933.9
23.6586	-20.065	3000
-39.3414	-19.065	2935.05
-37.3414	-19.065	2935.5
-35.3414	-19.065	2929.5
-33.3414	-19.065	2930.57
-31.3414	-19.065	2931.56
-29.3414	-19.065	2934.87
-27.3414	-19.065	2932.1
-25.3414	-19.065	2934.41
-23.3414	-19.065	2931.91
-21.3414	-19.065	2934.09
-19.3414	-19.065	2931.6
-17.3414	-19.065	2931.6
-15.3414	-19.065	2930.2
-13.3414	-19.065	2932.2
-11.3414	-19.065	2934.29
-9.341423	-19.065	2931.95
-7.341423	-19.065	2932.34
-5.341423	-19.065	2935.81
-3.341423	-19.065	2934.43
-1.341423	-19.065	2936.38
0.658577	-19.065	2942.54
2.658577	-19.065	2934.2
4.658577	-19.065	2936.09
6.658577	-19.065	2900
8.658577	-19.065	2938.18
10.6586	-19.065	2940.87
12.6586	-19.065	2932.08
14.6586	-19.065	2936.23
16.6586	-19.065	2932.76
18.6586	-19.065	2935.46
20.6586	-19.065	2936.79
22.6586	-19.065	2945.5
24.6586	-19.065	2927.72
-38.3414	-18.065	2934.03
-36.3414	-18.065	2932.58
-34.3414	-18.065	2902.12
-32.3414	-18.065	2932.66
-30.3414	-18.065	2930.27
-28.3414	-18.065	2934.71
-26.3414	-18.065	2933.02
-24.3414	-18.065	2933.93
-22.3414	-18.065	2935.21
-20.3414	-18.065	2935.55
-18.3414	-18.065	2932.78
-16.3414	-18.065	2930.01
-14.3414	-18.065	2930.98
-12.3414	-18.065	2930.03
-10.3414	-18.065	2932.38
-8.341423	-18.065	2930.38
-6.341423	-18.065	2932.35
-4.341423	-18.065	2930.52
-2.341423	-18.065	2933.34
-0.341423	-18.065	2937.13
1.658577	-18.065	2931.74
3.658577	-18.065	2934.53
5.658577	-18.065	2938.07
7.658577	-18.065	2934.52
9.658577	-18.065	2933.04
11.6586	-18.065	2933.2
13.6586	-18.065	2935.47
15.6586	-18.065	2936.96
17.6586	-18.065	2935.06
19.6586	-18.065	2930.32
21.6586	-18.065	2933.1
23.6586	-18.065	2933.86
-39.3414	-17.065	2932.32
-37.3414	-17.065	2931.37
-35.3414	-17.065	2938.94
-33.3414	-17.065	2931.67
-31.3414	-17.065	2935.16
-29.3414	-17.065	2935.68
-27.3414	-17.065	2933.83
-25.3414	-17.065	2931.5
-23.3414	-17.065	2934.66
-21.3414	-17.065	2934.71
-19.3414	-17.065	2926.47
-17.3414	-17.065	2932.78
-15.3414	-17.065	2930.64
-13.3414	-17.065	2931.57
-11.3414	-17.065	2933.01
-9.341423	-17.065	2933.78
-7.341423	-17.065	2939.35
-5.341423	-17.065	2929.93
-3.341423	-17.065	2931.93
-1.341423	-17.065	2932.93
0.658577	-17.065	2940.72
2.658577	-17.065	2936.41
4.658577	-17.065	2935.19
6.658577	-17.065	2931.28
8.658577	-17.065	2934.03
10.6586	-17.065	2932.73
12.6586	-17.065	2934.06
14.6586	-17.065	2934.9
16.6586	-17.065	2931.23
18.6586	-17.065	2942.82
20.6586	-17.065	2929.24
22.6586	-17.065	2932.22
24.6586	-17.065	2930.91
-38.3414	-16.065	2934.09
-36.3414	-16.065	2922.74
-34.3414	-16.065	2933.18
-32.3414	-16.065	2930.86
-30.3414	-16.065	2932.15
-28.3414	-16.065	2937.76
-26.3414	-16.065	2934.12
-24.3414	-16.065	2935.58
-22.3414	-16.065	2931.77
-20.3414	-16.065	2931.81
-18.3414	-16.065	2926.26
-16.3414	-16.065	2934.69
-14.3414	-16.065	2932.07
-12.3414	-16.065	2932.15
-10.3414	-16.065	2933.33
-8.341423	-16.065	2940.86
-6.341423	-16.065	2933.44
-4.341423	-16.065	2933.79
-2.341423	-16.065	2940.14
-0.341423	-16.065	2934.51
1.658577	-16.065	2936.2
3.658577	-16.065	2930.73
5.658577	-16.065	2935.92
7.658577	-16.065	2930.92
9.658577	-16.065	2933.11
11.6586	-16.065	2933.89
13.6586	-16.065	2933.82
15.6586	-16.065	2932.63
17.6586	-16.065	2935.7
19.6586	-16.065	2932.68
21.6586	-16.065	2934.11
23.6586	-16.065	2931.02
-39.3414	-15.065	2934.5
-37.3414	-15.065	2928.01
-35.3414	-15.065	2936.53
-33.3414	-15.065	2935.07
-31.3414	-15.065	2931.99
-29.3414	-15.065	2935.68
-27.3414	-15.065	2932.45
-25.3414	-15.065	2935.03
-23.3414	-15.065	2934.57
-21.3414	-15.065	2935.75
-19.3414	-15.065	2913.65
-17.3414	-15.065	2932.01
-15.3414	-15.065	2929.37
-13.3414	-15.065	2931.97
-11.3414	-15.065	2934.31
-9.341423	-15.065	2938.84
-7.341423	-15.065	2936.45
-5.341423	-15.065	2937.43
-3.341423	-15.065	2938.52
-1.341423	-15.065	2929.73
0.658577	-15.065	2933.15
2.658577	-15.065	2938.44
4.658577	-15.065	2931.89
6.658577	-15.065	2934.91
8.658577	-15.065	2935.24
10.6586	-15.065	2932.78
12.6586	-15.065	2940.01
14.6586	-15.065	2935.98
16.6586	-15.065	2930.67
18.6586	-15.065	2936.17
20.6586	-15.065	2933.81
22.6586	-15.065	2933.68
24.6586	-15.065	2933.29
-38.3414	-14.065	2931.75
-36.3414	-14.065	2931.36
-34.3414	-14.065	2932.45
-32.3414	-14.065	2936.89
-30.3414	-14.065	2928.71
-28.3414	-14.065	2939.19
-26.3414	-14.065	2935.98
-24.3414	-14.065	2938.11
-22.3414	-14.065	2936.09
-20.3414	-14.065	2925.68
-18.3414	-14.065	2928.58
-16.3414	-14.065	2932.51
-14.3414	-14.065	2930.66
-12.3414	-14.065	2932.61
-10.3414	-14.065	2938.14
-8.341423	-14.065	2939.29
-6.341423	-14.065	2940.64
-4.341423	-14.065	2934.67
-2.341423	-14.065	2927.93
-0.341423	-14.065	2932.72
1.658577	-14.065	2936.98
3.658577	-14.065	2937.92
5.658577	-14.065	2934.23
7.658577	-14.065	2933.98
9.658577	-14.065	2932.48
11.6586	-14.065	2927.69
13.6586	-14.065	2934.33
15.6586	-14.065	2955.47
17.6586	-14.065	2932.62
19.6586	-14.065	2933.94
21.6586	-14.065	2934.23
23.6586	-14.065	2933.69
-39.3414	-13.065	2929.31
-37.3414	-13.065	2930.8
-35.3414	-13.065	2935.93
-33.3414	-13.065	2936.85
-31.3414	-13.065	2930.39
-29.3414	-13.065	2934.25
-27.3414	-13.065	2935.53
-25.3414	-13.065	2935.64
-23.3414	-13.065	2932.57
-21.3414	-13.065	2934.72
-19.3414	-13.065	2936.24
-17.3414	-13.065	2933.34
-15.3414	-13.065	2933.27
-13.3414	-13.065	2933.46
-11.3414	-13.065	2933.52
-9.341423	-13.065	2940.05
-7.341423	-13.065	2935.54
-5.341423	-13.065	2934.11
-3.341423	-13.065	2936.19
-1.341423	-13.065	2934.72
0.658577	-13.065	2936.11
2.658577	-13.065	2936.69
4.658577	-13.065	2940.26
6.658577	-13.065	2933.93
8.658577	-13.065	2931.1
10.6586	-13.065	2943.24
12.6586	-13.065	2949.25
14.6586	-13.065	2936.84
16.6586	-13.065	2936.13
18.6586	-13.065	2931.38
20.6586	-13.065	2934.08
22.6586	-13.065	2935.94
24.6586	-13.065	2937.15
-38.3414	-12.065	2935.29
-36.3414	-12.065	2937.24
-34.3414	-12.065	2930.2
-32.3414	-12.065	2933.25
-30.3414	-12.065	2931.45
-28.3414	-12.065	2929.15
-26.3414	-12.065	2936.23
-24.3414	-12.065	2933.88
-22.3414	-12.065	2935.76
-20.3414	-12.065	2940.74
-18.3414	-12.065	2939.65
-16.3414	-12.065	2931.56
-14.3414	-12.065	2929.97
-12.3414	-12.065	2935.25
-10.3414	-12.065	2937.35
-8.341423	-12.065	2937.02
-6.341423	-12.065	2932.15
-4.341423	-12.065	2940.69
-2.341423	-12.065	2933.63
-0.341423	-12.065	2934.11
1.658577	-12.065	2937.79
3.658577	-12.065	2944.75
5.658577	-12.065	2939.96
7.658577	-12.065	2933.3
9.658577	-12.065	2919.25
11.6586	-12.065	2921.58
13.6586	-12.065	2946.16
15.6586	-12.065	2934.12
17.6586	-12.065	2933.51
19.6586	-12.065	2934.1
21.6586	-12.065	2935.71
23.6586	-12.065	2935.11
-39.3414	-11.065	2935.82
-37.3414	-11.065	2931.79
-35.3414	-11.065	2929.49
-33.3414	-11.065	2932.34
-31.3414	-11.065	2931.66
-29.3414	-11.065	2931.34
-27.3414	-11.065	2931.33
-25.3414	-11.065	2930.98
-23.3414	-11.065	2933.14
-21.3414	-11.065	2937.47
-19.3414	-11.065	2934.95
-17.3414	-11.065	2933.75
-15.3414	-11.065	2937.72
-13.3414	-11.065	2939.38
-11.3414	-11.065	2934.43
-9.341423	-11.065	2939.85
-7.341423	-11.065	2932.09
-5.341423	-11.065	2939.1
-3.341423	-11.065	2936.19
-1.341423	-11.065	2933.66
0.658577	-11.065	2935.87
2.658577	-11.065	2933.76
4.658577	-11.065	2941.45
6.658577	-11.065	2937.9
8.658577	-11.065	2935.38
10.6586	-11.065	2957
12.6586	-11.065	2946.81
14.6586	-11.065	2930.99
16.6586	-11.065	2933.47
18.6586	-11.065	2933.84
20.6586	-11.065	2937.44
22.6586	-11.065	2947.28
24.6586	-11.065	2932.68
-38.3414	-10.065	2931.54
-36.3414	-10.065	2933.09
-34.3414	-10.065	2931.44
-32.3414	-10.065	2935.79
-30.3414	-10.065	2936.97
-28.3414	-10.065	2940.01
-26.3414	-10.065	2933.15
-24.3414	-10.065	2935.51
-22.3414	-10.065	2923.57
-20.3414	-10.065	2933.91
-18.3414	-10.065	2933.87
-16.3414	-10.065	2930.82
-14.3414	-10.065	2934.39
-12.3414	-10.065	2934.93
-10.3414	-10.065	2932.13
-8.341423	-10.065	2938.26
-6.341423	-10.065	2947.35
-4.341423	-10.065	2930.88
-2.341423	-10.065	2935.67
-0.341423	-10.065	2939.33
1.658577	-10.065	2936.1
3.658577	-10.065	2949.13
5.658577	-10.065	2942.15
7.658577	-10.065	2931.65
9.658577	-10.065	2901.69
11.6586	-10.065	2959.76
13.6586	-10.065	2936.63
15.6586	-10.065	2936.28
17.6586	-10.065	2938.97
19.6586	-10.065	2939.15
21.6586	-10.065	2945.34
23.6586	-10.065	2935.92
-39.3414	-9.065000	2936.65
-37.3414	-9.065000	2932.28
-35.3414	-9.065000	2930.77
-33.3414	-9.065000	2935.98
-31.3414	-9.065000	2930.56
-29.3414	-9.065000	2932.7
-27.3414	-9.065000	2930.96
-25.3414	-9.065000	2929.76
-23.3414	-9.065000	2941.18
-21.3414	-9.065000	2941.81
-19.3414	-9.065000	2941.81
-17.3414	-9.065000	2934.13
-15.3414	-9.065000	2932.49
-13.3414	-9.065000	2933.86
-11.3414	-9.065000	2932.62
-9.341423	-9.065000	2933.32
-7.341423	-9.065000	2937.42
-5.341423	-9.065000	2925.52
-3.341423	-9.065000	2944.48
-1.341423	-9.065000	2940.66
0.658577	-9.065000	2933.28
2.658577	-9.065000	2943.52
4.658577	-9.065000	2932.62
6.658577	-9.065000	2934.81
8.658577	-9.065000	2948
10.6586	-9.065000	2919.04
12.6586	-9.065000	2936.27
14.6586	-9.065000	2940.57
16.6586	-9.065000	2933.37
18.6586	-9.065000	2935.09
20.6586	-9.065000	2928.79
22.6586	-9.065000	2934.17
24.6586	-9.065000	2940.91
-38.3414	-8.065000	2932.83
-36.3414	-8.065000	2934.52
-34.3414	-8.065000	2929.81
-32.3414	-8.065000	2935.16
-30.3414	-8.065000	2932.38
-28.3414	-8.065000	2932.78
-26.3414	-8.065000	2935.03
-24.3414	-8.065000	2934.96
-22.3414	-8.065000	2949.97
-20.3414	-8.065000	2938.22
-18.3414	-8.065000	2939.09
-16.3414	-8.065000	2931.39
-14.3414	-8.065000	2931.74
-12.3414	-8.065000	2933.34
-10.3414	-8.065000	2936.39
-8.341423	-8.065000	2933.92
-6.341423	-8.065000	2948.27
-4.341423	-8.065000	2945.25
-2.341423	-8.065000	2935.11
-0.341423	-8.065000	2935.65
1.658577	-8.065000	2919.3
3.658577	-8.065000	2931.71
5.658577	-8.065000	2932.11
7.658577	-8.065000	2930.7
9.658577	-8.065000	2999.35
11.6586	-8.065000	3000
13.6586	-8.065000	2935.95
15.6586	-8.065000	2936.48
17.6586	-8.065000	2933.84
19.6586	-8.065000	2940.5
21.6586	-8.065000	2939.92
23.6586	-8.065000	2930.65
-39.3414	-7.065000	2932.52
-37.3414	-7.065000	2931.44
-35.3414	-7.065000	2931.93
-33.3414	-7.065000	2930.3
-31.3414	-7.065000	2933.2
-29.3414	-7.065000	2932.49
-27.3414	-7.065000	2931.95
-25.3414	-7.065000	2932.47
-23.3414	-7.065000	2932.41
-21.3414	-7.065000	2948.27
-19.3414	-7.065000	2931.22
-17.3414	-7.065000	2931.96
-15.3414	-7.065000	2933.12
-13.3414	-7.065000	2934.49
-11.3414	-7.065000	2935.1
-9.341423	-7.065000	2931
-7.341423	-7.065000	2936.05
-5.341423	-7.065000	2901.29
-3.341423	-7.065000	2935.96
-1.341423	-7.065000	2949.68
0.658577	-7.065000	2928
2.658577	-7.065000	2933.09
4.658577	-7.065000	2934.72
6.658577	-7.065000	2934.62
8.658577	-7.065000	2929.12
10.6586	-7.065000	2930.12
12.6586	-7.065000	2933.64
14.6586	-7.065000	2933.88
16.6586	-7.065000	2934.78
18.6586	-7.065000	2934.81
20.6586	-7.065000	2935.64
22.6586	-7.065000	2932.97
24.6586	-7.065000	2928.35
-38.3414	-6.065000	2931.08
-36.3414	-6.065000	2931.36
-34.3414	-6.065000	2934.2
-32.3414	-6.065000	2930.59
-30.3414	-6.065000	2930.47
-28.3414	-6.065000	2932.89
-26.3414	-6.065000	2931.29
-24.3414	-6.065000	2935.6
-22.3414	-6.065000	2931.88
-20.3414	-6.065000	2933.29
-18.3414	-6.065000	2943.8
-16.3414	-6.065000	2931.8
-14.3414	-6.065000	2930.25
-12.3414	-6.065000	2939.39
-10.3414	-6.065000	2931.11
-8.341423	-6.065000	2932.27
-6.341423	-6.065000	2931.99
-4.341423	-6.065000	2906.29
-2.341423	-6.065000	2931.23
-0.341423	-6.065000	2930.4
1.658577	-6.065000	2916.85
3.658577	-6.065000	2937.07
5.658577	-6.065000	2933.97
7.658577	-6.065000	2932.62
9.658577	-6.065000	2946.79
11.6586	-6.065000	2932.99
13.6586	-6.065000	2933.3
15.6586	-6.065000	2933.15
17.6586	-6.065000	2936.57
19.6586	-6.065000	2935.15
21.6586	-6.065000	2933.89
23.6586	-6.065000	2934.7
-39.3414	-5.065000	2933.34
-37.3414	-5.065000	2937.94
-35.3414	-5.065000	2932.02
-33.3414	-5.065000	2935.93
-31.3414	-5.065000	2933.48
-29.3414	-5.065000	2931.68
-27.3414	-5.065000	2931.36
-25.3414	-5.065000	2933.32
-23.3414	-5.065000	2930.04
-21.3414	-5.065000	2933.52
-19.3414	-5.065000	2910
-17.3414	-5.065000	2917.41
-15.3414	-5.065000	2932.72
-13.3414	-5.065000	2932.02
-11.3414	-5.065000	2936.38
-9.341423	-5.065000	2933.62
-7.341423	-5.065000	2931.15
-5.341423	-5.065000	2930.59
-3.341423	-5.065000	2999.72
-1.341423	-5.065000	2939.26
0.658577	-5.065000	2935.73
2.658577	-5.065000	2946.69
4.658577	-5.065000	2931.57
6.658577	-5.065000	2935.31
8.658577	-5.065000	2930.42
10.6586	-5.065000	2935.82
12.6586	-5.065000	2935.07
14.6586	-5.065000	2934.07
16.6586	-5.065000	2932.84
18.6586	-5.065000	2933.25
20.6586	-5.065000	2936.97
22.6586	-5.065000	2933.57
24.6586	-5.065000	2930.89
-38.3414	-4.065000	2937.75
-36.3414	-4.065000	2932.37
-34.3414	-4.065000	2936.24
-32.3414	-4.065000	2931.96
-30.3414	-4.065000	2931.13
-28.3414	-4.065000	2929.11
-26.3414	-4.065000	2930.43
-24.3414	-4.065000	2932.52
-22.3414	-4.065000	2933.97
-20.3414	-4.065000	2932.57
-18.3414	-4.065000	2923.39
-16.3414	-4.065000	2929.28
-14.3414	-4.065000	2931.97
-12.3414	-4.065000	2933.25
-10.3414	-4.065000	2934
-8.341423	-4.065000	2942.74
-6.341423	-4.065000	2936.7
-4.341423	-4.065000	2916.49
-2.341423	-4.065000	2932.02
-0.341423	-4.065000	2931.7
1.658577	-4.065000	2939.43
3.658577	-4.065000	2926.98
5.658577	-4.065000	2934.2
7.658577	-4.065000	2931.44
9.658577	-4.065000	2931.12
11.6586	-4.065000	2938.02
13.6586	-4.065000	2931.32
15.6586	-4.065000	2933.14
17.6586	-4.065000	2932.05
19.6586	-4.065000	2933.74
21.6586	-4.065000	2930.66
23.6586	-4.065000	2936.25
-39.3414	-3.065000	2955.02
-37.3414	-3.065000	2934.08
-35.3414	-3.065000	2932.92
-33.3414	-3.065000	2932.44
-31.3414	-3.065000	2928.43
-29.3414	-3.065000	2929.66
-27.3414	-3.065000	2930.87
-25.3414	-3.065000	2930.41
-23.3414	-3.065000	2933.76
-21.3414	-3.065000	2931.06
-19.3414	-3.065000	2933.02
-17.3414	-3.065000	2931.98
-15.3414	-3.065000	2935.14
-13.3414	-3.065000	2932.53
-11.3414	-3.065000	2932.9
-9.341423	-3.065000	2932.13
-7.341423	-3.065000	2938.34
-5.341423	-3.065000	2936.21
-3.341423	-3.065000	2927.79
-1.341423	-3.065000	2930.44
0.658577	-3.065000	2932.47
2.658577	-3.065000	2936.35
4.658577	-3.065000	2909.96
6.658577	-3.065000	2934.25
8.658577	-3.065000	2932.49
10.6586	-3.065000	2933.85
12.6586	-3.065000	2934.17
14.6586	-3.065000	2930
16.6586	-3.065000	2934.02
18.6586	-3.065000	2934.3
20.6586	-3.065000	2933.06
22.6586	-3.065000	2932.15
24.6586	-3.065000	2935.5
-38.3414	-2.065000	2932.82
-36.3414	-2.065000	2939.34
-34.3414	-2.065000	2933.93
-32.3414	-2.065000	2918.79
-30.3414	-2.065000	2929.69
-28.3414	-2.065000	2978.4
-26.3414	-2.065000	2932.57
-24.3414	-2.065000	2934.53
-22.3414	-2.065000	2933.21
-20.3414	-2.065000	2936.12
-18.3414	-2.065000	2937.3
-16.3414	-2.065000	2934.43
-14.3414	-2.065000	2933.36
-12.3414	-2.065000	2932.36
-10.3414	-2.065000	2933.29
-8.341423	-2.065000	2930.41
-6.341423	-2.065000	2936.04
-4.341423	-2.065000	2937.17
-2.341423	-2.065000	2932.17
-0.341423	-2.065000	2935.43
1.658577	-2.065000	2930.46
3.658577	-2.065000	2930.11
5.658577	-2.065000	2933.54
7.658577	-2.065000	2933.96
9.658577	-2.065000	2934.89
11.6586	-2.065000	2935.07
13.6586	-2.065000	2933.7
15.6586	-2.065000	2932.98
17.6586	-2.065000	2933.72
19.6586	-2.065000	2930.7
21.6586	-2.065000	2942.65
23.6586	-2.065000	2937.12
-39.3414	-1.065000	2940.09
-37.3414	-1.065000	2933.1
-35.3414	-1.065000	2927.47
-33.3414	-1.065000	2934.97
-31.3414	-1.065000	2932.57
-29.3414	-1.065000	2930.45
-27.3414	-1.065000	2945.83
-25.3414	-1.065000	2931.67
-23.3414	-1.065000	2930.26
-21.3414	-1.065000	2929.2
-19.3414	-1.065000	2926.76
-17.3414	-1.065000	2934.05
-15.3414	-1.065000	2934.6
-13.3414	-1.065000	2932.18
-11.3414	-1.065000	2936.27
-9.341423	-1.065000	2936.37
-7.341423	-1.065000	2934.67
-5.341423	-1.065000	2933.9
-3.341423	-1.065000	2936.27
-1.341423	-1.065000	2939.09
0.658577	-1.065000	2932.25
2.658577	-1.065000	2933.72
4.658577	-1.065000	2938.76
6.658577	-1.065000	2932.15
8.658577	-1.065000	2928.4
10.6586	-1.065000	2932.93
12.6586	-1.065000	2933.07
14.6586	-1.065000	2929.98
16.6586	-1.065000	2933.89
18.6586	-1.065000	2934.32
20.6586	-1.065000	2934.72
22.6586	-1.065000	2941.02
24.6586	-1.065000	2934.26
-38.3414	-0.065000	2950.76
-36.3414	-0.065000	2926.08
-34.3414	-0.065000	2934.86
-32.3414	-0.065000	2929.7
-30.3414	-0.065000	2922.12
-28.3414	-0.065000	2948.1
-26.3414	-0.065000	2934.39
-24.3414	-0.065000	2930.44
-22.3414	-0.065000	2932.11
-20.3414	-0.065000	2935.44
-18.3414	-0.065000	2936.52
-16.3414	-0.065000	2935.16
-14.3414	-0.065000	2930.82
-12.3414	-0.065000	2931.27
-10.3414	-0.065000	2933.66
-8.341423	-0.065000	2933.88
-6.341423	-0.065000	2934.21
-4.341423	-0.065000	2933.14
-2.341423	-0.065000	2930.82
-0.341423	-0.065000	2935.09
1.658577	-0.065000	2932.24
3.658577	-0.065000	2940.45
5.658577	-0.065000	2933.38
7.658577	-0.065000	2930.22
9.658577	-0.065000	2931.1
11.6586	-0.065000	2933.32
13.6586	-0.065000	2938.03
15.6586	-0.065000	2931.42
17.6586	-0.065000	2933.8
19.6586	-0.065000	2932.75
21.6586	-0.065000	2930.14
23.6586	-0.065000	2937.12
-39.3414	0.935000	2940.36
-37.3414	0.935000	2967.03
-35.3414	0.935000	2933.98
-33.3414	0.935000	2936.84
-31.3414	0.935000	2938.39
-29.3414	0.935000	2940.9
-27.3414	0.935000	2906.27
-25.3414	0.935000	2936.29
-23.3414	0.935000	2933.56
-21.3414	0.935000	2935.59
-19.3414	0.935000	2931.86
-17.3414	0.935000	2935.92
-15.3414	0.935000	2935.34
-13.3414	0.935000	2929.82
-11.3414	0.935000	2936.82
-9.341423	0.935000	2934.8
-7.341423	0.935000	2933.69
-5.341423	0.935000	2937.07
-3.341423	0.935000	2933.75
-1.341423	0.935000	2931.47
0.658577	0.935000	2932.37
2.658577	0.935000	2934.41
4.658577	0.935000	2936.09
6.658577	0.935000	2935.08
8.658577	0.935000	2929.25
10.6586	0.935000	2932.27
12.6586	0.935000	2933.51
14.6586	0.935000	2933.66
16.6586	0.935000	2931.65
18.6586	0.935000	2929.92
20.6586	0.935000	2930.46
22.6586	0.935000	2931.71
24.6586	0.935000	2936.17
-38.3414	1.935000	2948.3
-36.3414	1.935000	2937.48
-34.3414	1.935000	2936.45
-32.3414	1.935000	2934.65
-30.3414	1.935000	2931.34
-28.3414	1.935000	2942.15
-26.3414	1.935000	2932.78
-24.3414	1.935000	2941.89
-22.3414	1.935000	2935.69
-20.3414	1.935000	2933.5
-18.3414	1.935000	2937.95
-16.3414	1.935000	2943.04
-14.3414	1.935000	2933.64
-12.3414	1.935000	2939.12
-10.3414	1.935000	2930.61
-8.341423	1.935000	2931.47
-6.341423	1.935000	2931.37
-4.341423	1.935000	2935.15
-2.341423	1.935000	2932.25
-0.341423	1.935000	2931.59
1.658577	1.935000	2933.19
3.658577	1.935000	2930.5
5.658577	1.935000	2932.08
7.658577	1.935000	2929.29
9.658577	1.935000	2935.29
11.6586	1.935000	2930.71
13.6586	1.935000	2934.95
15.6586	1.935000	2933.83
17.6586	1.935000	2934.54
19.6586	1.935000	2931.64
21.6586	1.935000	2929.28
23.6586	1.935000	2932.93
-39.3414	2.935000	2931.05
-37.3414	2.935000	2935.58
-35.3414	2.935000	2936.73
-33.3414	2.935000	2937.54
-31.3414	2.935000	2936.88
-29.3414	2.935000	2932.94
-27.3414	2.935000	2932.49
-25.3414	2.935000	2933.58
-23.3414	2.935000	2939.34
-21.3414	2.935000	2932.97
-19.3414	2.935000	2929.32
-17.3414	2.935000	2915.14
-15.3414	2.935000	2932.58
-13.3414	2.935000	2937.54
-11.3414	2.935000	2935.54
-9.341423	2.935000	2933.24
-7.341423	2.935000	2930.58
-5.341423	2.935000	2934.44
-3.341423	2.935000	2930.64
-1.341423	2.935000	2933.04
0.658577	2.935000	2933.43
2.658577	2.935000	2939.97
4.658577	2.935000	2937.89
6.658577	2.935000	2934.18
8.658577	2.935000	2932.6
10.6586	2.935000	2932.65
12.6586	2.935000	2931.6
14.6586	2.935000	2932.52
16.6586	2.935000	2931.43
18.6586	2.935000	2930.2
20.6586	2.935000	2931.07
22.6586	2.935000	2930.89
24.6586	2.935000	2930.57
-38.3414	3.935000	2931.47
-36.3414	3.935000	2934.16
-34.3414	3.935000	2927.6
-32.3414	3.935000	2936.91
-30.3414	3.935000	2935.2
-28.3414	3.935000	2933.66
-26.3414	3.935000	2929.95
-24.3414	3.935000	2932.66
-22.3414	3.935000	2933.54
-20.3414	3.935000	2931.77
-18.3414	3.935000	2928.54
-16.3414	3.935000	2918.17
-14.3414	3.935000	2925.11
-12.3414	3.935000	2935.44
-10.3414	3.935000	2934.82
-8.341423	3.935000	2939.22
-6.341423	3.935000	2932.69
-4.341423	3.935000	2931.45
-2.341423	3.935000	2929.93
-0.341423	3.935000	2937.97
1.658577	3.935000	2933.91
3.658577	3.935000	2934.91
5.658577	3.935000	2935.02
7.658577	3.935000	2929.81
9.658577	3.935000	2931.94
11.6586	3.935000	2933.22
13.6586	3.935000	2928.27
15.6586	3.935000	2930.85
17.6586	3.935000	2931.73
19.6586	3.935000	2934.12
21.6586	3.935000	2930.4
23.6586	3.935000	2929.33
-39.3414	4.935000	2939.8
-37.3414	4.935000	2938.6
-35.3414	4.935000	2930.88
-33.3414	4.935000	2934.04
-31.3414	4.935000	2933.14
-29.3414	4.935000	2933.42
-27.3414	4.935000	2934.17
-25.3414	4.935000	2932.28
-23.3414	4.935000	2934.96
-21.3414	4.935000	2934.98
-19.3414	4.935000	2930.71
-17.3414	4.935000	2931.6
-15.3414	4.935000	2929.6
-13.3414	4.935000	2932.81
-11.3414	4.935000	2931.68
-9.341423	4.935000	2931.83
-7.341423	4.935000	2933.48
-5.341423	4.935000	2932.82
-3.341423	4.935000	2937.58
-1.341423	4.935000	2931.85
0.658577	4.935000	2935.86
2.658577	4.935000	2932.11
4.658577	4.935000	2934.85
6.658577	4.935000	2939.02
8.658577	4.935000	2933.05
10.6586	4.935000	2933.22
12.6586	4.935000	2928.49
14.6586	4.935000	2935.14
16.6586	4.935000	2933.33
18.6586	4.935000	2935.27
20.6586	4.935000	2931.49
22.6586	4.935000	2938.96
24.6586	4.935000	2936.57
-38.3414	5.935000	2931.6
-36.3414	5.935000	2929.6
-34.3414	5.935000	2930.29
-32.3414	5.935000	2933.19
-30.3414	5.935000	2932.94
-28.3414	5.935000	2929.3
-26.3414	5.935000	2933.85
-24.3414	5.935000	2933.32
-22.3414	5.935000	2935.2
-20.3414	5.935000	2931.56
-18.3414	5.935000	2932.67
-16.3414	5.935000	2929.32
-14.3414	5.935000	2932.43
-12.3414	5.935000	2931.02
-10.3414	5.935000	2934.77
-8.341423	5.935000	2933.19
-6.341423	5.935000	2934.78
-4.341423	5.935000	2938.57
-2.341423	5.935000	2931.96
-0.341423	5.935000	2932.1
1.658577	5.935000	2933.38
3.658577	5.935000	2931.18
5.658577	5.935000	2934.75
7.658577	5.935000	2932.36
9.658577	5.935000	2930.72
11.6586	5.935000	2929.71
13.6586	5.935000	2932.68
15.6586	5.935000	2933.04
17.6586	5.935000	2935.36
19.6586	5.935000	2930.64
21.6586	5.935000	2930.85
23.6586	5.935000	2931.03
-39.3414	6.935000	2932.83
-37.3414	6.935000	2931.19
-35.3414	6.935000	2932.11
-33.3414	6.935000	2931.01
-31.3414	6.935000	2927.19
-29.3414	6.935000	2933.23
-27.3414	6.935000	2939.74
-25.3414	6.935000	2934.34
-23.3414	6.935000	2933.64
-21.3414	6.935000	2934.52
-19.3414	6.935000	2934.03
-17.3414	6.935000	2928.74
-15.3414	6.935000	2932.77
-13.3414	6.935000	2933.15
-11.3414	6.935000	2932.14
-9.341423	6.935000	2936.91
-7.341423	6.935000	2937.11
-5.341423	6.935000	2930.34
-3.341423	6.935000	2933
-1.341423	6.935000	2937.76
0.658577	6.935000	2934.86
2.658577	6.935000	2932.48
4.658577	6.935000	2934.02
6.658577	6.935000	2936.52
8.658577	6.935000	2933.77
10.6586	6.935000	2935.13
12.6586	6.935000	2932.43
14.6586	6.935000	2935.47
16.6586	6.935000	2933.77
18.6586	6.935000	2932.15
20.6586	6.935000	2930.58
22.6586	6.935000	2928.16
24.6586	6.935000	2932.65
-38.3414	7.935000	2931.3
-36.3414	7.935000	2932.78
-34.3414	7.935000	2931.01
-32.3414	7.935000	2931.66
-30.3414	7.935000	2932.49
-28.3414	7.935000	2936.48
-26.3414	7.935000	2935.6
-24.3414	7.935000	2935.18
-22.3414	7.935000	2935.27
-20.3414	7.935000	2933.98
-18.3414	7.935000	2935.89
-16.3414	7.935000	2932.07
-14.3414	7.935000	2934.04
-12.3414	7.935000	2931.66
-10.3414	7.935000	2940.05
-8.341423	7.935000	2936.68
-6.341423	7.935000	2936.22
-4.341423	7.935000	2934.23
-2.341423	7.935000	2935.51
-0.341423	7.935000	2931.61
1.658577	7.935000	2932.84
3.658577	7.935000	2934.03
5.658577	7.935000	2938.25
7.658577	7.935000	2936.39
9.658577	7.935000	2933.72
11.6586	7.935000	2935.42
13.6586	7.935000	2930.84
15.6586	7.935000	2933.31
17.6586	7.935000	2932.11
19.6586	7.935000	2929.05
21.6586	7.935000	2934.88
23.6586	7.935000	2932.23
-39.3414	8.935000	2934.53
-37.3414	8.935000	2930.87
-35.3414	8.935000	2933.3
-33.3414	8.935000	2930.77
-31.3414	8.935000	2929.7
-29.3414	8.935000	2933.56
-27.3414	8.935000	2936.52
-25.3414	8.935000	2936.34
-23.3414	8.935000	2934.46
-21.3414	8.935000	2937.36
-19.3414	8.935000	2934.07
-17.3414	8.935000	2931.51
-15.3414	8.935000	2936.56
-13.3414	8.935000	2932.89
-11.3414	8.935000	2937.77
-9.341423	8.935000	2937.55
-7.341423	8.935000	2937.76
-5.341423	8.935000	2933.74
-3.341423	8.935000	2931.47
-1.341423	8.935000	2934.79
0.658577	8.935000	2934.79
2.658577	8.935000	2933.46
4.658577	8.935000	2933.24
6.658577	8.935000	2936.26
8.658577	8.935000	2934.72
10.6586	8.935000	2938.02
12.6586	8.935000	2931.74
14.6586	8.935000	2934.15
16.6586	8.935000	2934.84
18.6586	8.935000	2927.86
20.6586	8.935000	2937.71
22.6586	8.935000	2937.85
24.6586	8.935000	2932.01
-38.3414	9.935000	2926.9
-36.3414	9.935000	2931.81
-34.3414	9.935000	2935.67
-32.3414	9.935000	2937.39
-30.3414	9.935000	2931.5
-28.3414	9.935000	2932.51
-26.3414	9.935000	2934.8
-24.3414	9.935000	2936.17
-22.3414	9.935000	2937
-20.3414	9.935000	2936.67
-18.3414	9.935000	2934.18
-16.3414	9.935000	2937.62
-14.3414	9.935000	2932.92
-12.3414	9.935000	2932.51
-10.3414	9.935000	2938.02
-8.341423	9.935000	2938.55
-6.341423	9.935000	2931.09
-4.341423	9.935000	2929.91
-2.341423	9.935000	2936.54
-0.341423	9.935000	2933.34
1.658577	9.935000	2932.62
3.658577	9.935000	2933.87
5.658577	9.935000	2936.11
7.658577	9.935000	2935.7
9.658577	9.935000	2939.76
11.6586	9.935000	2935.45
13.6586	9.935000	2930.75
15.6586	9.935000	2900
17.6586	9.935000	2900
19.6586	9.935000	2928.7
21.6586	9.935000	2933.05
23.6586	9.935000	2908.82
-39.3414	10.935	2929.47
-37.3414	10.935	2929.46
-35.3414	10.935	2929.5
-33.3414	10.935	2933.25
-31.3414	10.935	2931.6
-29.3414	10.935	2937.13
-27.3414	10.935	2933.91
-25.3414	10.935	2938.25
-23.3414	10.935	2933.24
-21.3414	10.935	2933.46
-19.3414	10.935	2935.19
-17.3414	10.935	2934.92
-15.3414	10.935	2933.29
-13.3414	10.935	2934.64
-11.3414	10.935	2931.97
-9.341423	10.935	2939.42
-7.341423	10.935	2937.33
-5.341423	10.935	2933.62
-3.341423	10.935	2932.23
-1.341423	10.935	2931.59
0.658577	10.935	2933.46
2.658577	10.935	2934.22
4.658577	10.935	2937.35
6.658577	10.935	2941.95
8.658577	10.935	2930.85
10.6586	10.935	2933.51
12.6586	10.935	2937.17
14.6586	10.935	2922.28
16.6586	10.935	2994.2
18.6586	10.935	2900
20.6586	10.935	2929.91
22.6586	10.935	2930.24
24.6586	10.935	2932.96
-38.3414	11.935	2933.22
-36.3414	11.935	2933.11
-34.3414	11.935	2925.36
-32.3414	11.935	2931.28
-30.3414	11.935	2929.75
-28.3414	11.935	2930.79
-26.3414	11.935	2934.86
-24.3414	11.935	2934.46
-22.3414	11.935	2935.97
-20.3414	11.935	2939
-18.3414	11.935	2934.28
-16.3414	11.935	2936.51
-14.3414	11.935	2935.18
-12.3414	11.935	2936.03
-10.3414	11.935	2936.36
-8.341423	11.935	2936.4
-6.341423	11.935	2937.16
-4.341423	11.935	2931.44
-2.341423	11.935	2927.44
-0.341423	11.935	2932.88
1.658577	11.935	2934.45
3.658577	11.935	2925.23
5.658577	11.935	2934.71
7.658577	11.935	2937.33
9.658577	11.935	2938.11
11.6586	11.935	2934.87
13.6586	11.935	2930.05
15.6586	11.935	3000
17.6586	11.935	2900.65
19.6586	11.935	2900
21.6586	11.935	2931.91
23.6586	11.935	2931.19
-39.3414	12.935	2931.61
-37.3414	12.935	2928.66
-35.3414	12.935	2932.54
-33.3414	12.935	2931.69
-31.3414	12.935	2930.9
-29.3414	12.935	2931.71
-27.3414	12.935	2933.7
-25.3414	12.935	2940.16
-23.3414	12.935	2930.45
-21.3414	12.935	2932.55
-19.3414	12.935	2930.48
-17.3414	12.935	2936.73
-15.3414	12.935	2933.3
-13.3414	12.935	2933.53
-11.3414	12.935	2933.37
-9.341423	12.935	2932.01
-7.341423	12.935	2934.99
-5.341423	12.935	2936.69
-3.341423	12.935	2930.81
-1.341423	12.935	2935.89
0.658577	12.935	2936.74
2.658577	12.935	2936.85
4.658577	12.935	2944.13
6.658577	12.935	2929.59
8.658577	12.935	2930.11
10.6586	12.935	2934.38
12.6586	12.935	2930.12
14.6586	12.935	2907.92
16.6586	12.935	2900.38
18.6586	12.935	2919.61
20.6586	12.935	2900
22.6586	12.935	2939.83
24.6586	12.935	2938.68
-38.3414	13.935	2930.66
-36.3414	13.935	2930.6
-34.3414	13.935	2937.77
-32.3414	13.935	2930.16
-30.3414	13.935	2934.95
-28.3414	13.935	2936.9
-26.3414	13.935	2936.73
-24.3414	13.935	2934.8
-22.3414	13.935	2935.78
-20.3414	13.935	2935.53
-18.3414	13.935	2934.5
-16.3414	13.935	2934.53
-14.3414	13.935	2931.99
-12.3414	13.935	2932.86
-10.3414	13.935	2931.1
-8.341423	13.935	2940.85
-6.341423	13.935	2932.3
-4.341423	13.935	2932.17
-2.341423	13.935	2933.9
-0.341423	13.935	2933.96
1.658577	13.935	2941.09
3.658577	13.935	2941.22
5.658577	13.935	2934.75
7.658577	13.935	2930.75
9.658577	13.935	2934.22
11.6586	13.935	2933.77
13.6586	13.935	2929.47
15.6586	13.935	2924.81
17.6586	13.935	2903.75
19.6586	13.935	2951.62
21.6586	13.935	2999.41
23.6586	13.935	2924.47
-39.3414	14.935	2934.8
-37.3414	14.935	2930.91
-35.3414	14.935	2937.17
-33.3414	14.935	2933.2
-31.3414	14.935	2934.36
-29.3414	14.935	2935.61
-27.3414	14.935	2936.15
-25.3414	14.935	2934.91
-23.3414	14.935	2930.41
-21.3414	14.935	2933.47
-19.3414	14.935	2929.11
-17.3414	14.935	2932.79
-15.3414	14.935	2932.86
-13.3414	14.935	2932.55
-11.3414	14.935	2931.81
-9.341423	14.935	2925.99
-7.341423	14.935	2930.09
-5.341423	14.935	2934.9
-3.341423	14.935	2930.82
-1.341423	14.935	2930.96
0.658577	14.935	2933.84
2.658577	14.935	2934.63
4.658577	14.935	2905
6.658577	14.935	2921.93
8.658577	14.935	2932.55
10.6586	14.935	2935.9
12.6586	14.935	2929.88
14.6586	14.935	2924.71
16.6586	14.935	2922.17
18.6586	14.935	2909.07
20.6586	14.935	2900
22.6586	14.935	2900
24.6586	14.935	2900.93
-38.3414	15.935	2931.64
-36.3414	15.935	2933.32
-34.3414	15.935	2932.49
-32.3414	15.935	2932.63
-30.3414	15.935	2935.21
-28.3414	15.935	2937.53
-26.3414	15.935	2935.12
-24.3414	15.935	2932.44
-22.3414	15.935	2928.92
-20.3414	15.935	2928.33
-18.3414	15.935	2933.2
-16.3414	15.935	2932.06
-14.3414	15.935	2935.65
-12.3414	15.935	2935.35
-10.3414	15.935	2942.37
-8.341423	15.935	2929.59
-6.341423	15.935	2931.76
-4.341423	15.935	2934.52
-2.341423	15.935	2939.76
-0.341423	15.935	2933.73
1.658577	15.935	2934.67
3.658577	15.935	2934.57
5.658577	15.935	2999.8
7.658577	15.935	2943.8
9.658577	15.935	2932.01
11.6586	15.935	2930.32
13.6586	15.935	2924.54
15.6586	15.935	2900
17.6586	15.935	2963.38
19.6586	15.935	3000
21.6586	15.935	2923.17
23.6586	15.935	2900
24.6586	15.935	2908.52