File: data/derived_data/raman/20170920_Gr-NH2_for_Radisurf/20170920 Gr-NH for Radisurf map 2/DDp int.txt
#XList		#YList		#IList
-39.3414	-21.065	70.5445
-37.3414	-21.065	38.5264
-35.3414	-21.065	40.4912
-33.3414	-21.065	293.591
-31.3414	-21.065	338.601
-29.3414	-21.065	229.24
-27.3414	-21.065	198.091
-25.3414	-21.065	59.3011
-23.3414	-21.065	0.523699
-21.3414	-21.065	79.7991
-19.3414	-21.065	2.182424
-17.3414	-21.065	97.7709
-15.3414	-21.065	425.234
-13.3414	-21.065	234.445
-11.3414	-21.065	51.7117
-9.341423	-21.065	8.277159
-7.341423	-21.065	119.999
-5.341423	-21.065	149.759
-3.341423	-21.065	16.4267
-1.341423	-21.065	88.4211
0.658577	-21.065	126.188
2.658577	-21.065	96.9381
4.658577	-21.065	55.6266
6.658577	-21.065	0.000000
8.658577	-21.065	9.182129
10.6586	-21.065	28.8382
12.6586	-21.065	118.225
14.6586	-21.065	167.364
16.6586	-21.065	76.2461
18.6586	-21.065	196.057
20.6586	-21.065	85.7605
22.6586	-21.065	3.026474
24.6586	-21.065	1.630468
-38.3414	-20.065	86.4585
-36.3414	-20.065	40.278
-34.3414	-20.065	92.438
-32.3414	-20.065	264.209
-30.3414	-20.065	306.478
-28.3414	-20.065	152.003
-26.3414	-20.065	187.102
-24.3414	-20.065	121.369
-22.3414	-20.065	24.0244
-20.3414	-20.065	117.347
-18.3414	-20.065	59.7099
-16.3414	-20.065	424.156
-14.3414	-20.065	327.429
-12.3414	-20.065	355.287
-10.3414	-20.065	21.0059
-8.341423	-20.065	141.283
-6.341423	-20.065	132.364
-4.341423	-20.065	49.2547
-2.341423	-20.065	213.577
-0.341423	-20.065	150.931
1.658577	-20.065	81.7656
3.658577	-20.065	51.5228
5.658577	-20.065	12.9159
7.658577	-20.065	0.000000
9.658577	-20.065	49.1041
11.6586	-20.065	68.5928
13.6586	-20.065	163.776
15.6586	-20.065	168.567
17.6586	-20.065	88.6738
19.6586	-20.065	235.682
21.6586	-20.065	106.734
23.6586	-20.065	0.000000
-39.3414	-19.065	129.731
-37.3414	-19.065	53.1297
-35.3414	-19.065	77.6414
-33.3414	-19.065	81.7673
-31.3414	-19.065	417.389
-29.3414	-19.065	195.178
-27.3414	-19.065	181.355
-25.3414	-19.065	190.895
-23.3414	-19.065	201.043
-21.3414	-19.065	176.273
-19.3414	-19.065	235.114
-17.3414	-19.065	379.065
-15.3414	-19.065	440.822
-13.3414	-19.065	332.39
-11.3414	-19.065	122.427
-9.341423	-19.065	179.006
-7.341423	-19.065	175.389
-5.341423	-19.065	110.301
-3.341423	-19.065	229.314
-1.341423	-19.065	112.438
0.658577	-19.065	54.7165
2.658577	-19.065	76.5331
4.658577	-19.065	75.651
6.658577	-19.065	2.175741
8.658577	-19.065	123.57
10.6586	-19.065	72.4632
12.6586	-19.065	132.341
14.6586	-19.065	133.513
16.6586	-19.065	133.358
18.6586	-19.065	176.538
20.6586	-19.065	235.723
22.6586	-19.065	9.523126
24.6586	-19.065	7.165507
-38.3414	-18.065	96.1157
-36.3414	-18.065	101.543
-34.3414	-18.065	3.398705
-32.3414	-18.065	270.689
-30.3414	-18.065	321.651
-28.3414	-18.065	212.635
-26.3414	-18.065	218.1
-24.3414	-18.065	203.053
-22.3414	-18.065	204.776
-20.3414	-18.065	204.5
-18.3414	-18.065	121.853
-16.3414	-18.065	293.743
-14.3414	-18.065	410.301
-12.3414	-18.065	337.268
-10.3414	-18.065	224.972
-8.341423	-18.065	153.695
-6.341423	-18.065	193.246
-4.341423	-18.065	135.289
-2.341423	-18.065	131.892
-0.341423	-18.065	96.5831
1.658577	-18.065	53.1291
3.658577	-18.065	67.1594
5.658577	-18.065	47.5973
7.658577	-18.065	321.129
9.658577	-18.065	236.899
11.6586	-18.065	340.297
13.6586	-18.065	220.019
15.6586	-18.065	141.222
17.6586	-18.065	155.34
19.6586	-18.065	88.8768
21.6586	-18.065	74.5302
23.6586	-18.065	195.658
-39.3414	-17.065	218.374
-37.3414	-17.065	375.061
-35.3414	-17.065	5.625725
-33.3414	-17.065	14.419
-31.3414	-17.065	161.219
-29.3414	-17.065	197.624
-27.3414	-17.065	172.901
-25.3414	-17.065	198.799
-23.3414	-17.065	214.883
-21.3414	-17.065	211.677
-19.3414	-17.065	79.0111
-17.3414	-17.065	153.089
-15.3414	-17.065	438.685
-13.3414	-17.065	383.524
-11.3414	-17.065	227.353
-9.341423	-17.065	158.91
-7.341423	-17.065	36.9946
-5.341423	-17.065	241.442
-3.341423	-17.065	114.041
-1.341423	-17.065	184.158
0.658577	-17.065	92.51
2.658577	-17.065	71.8393
4.658577	-17.065	150.87
6.658577	-17.065	145.583
8.658577	-17.065	229.574
10.6586	-17.065	210.275
12.6586	-17.065	314.138
14.6586	-17.065	124.441
16.6586	-17.065	91.4131
18.6586	-17.065	36.6387
20.6586	-17.065	18.2753
22.6586	-17.065	113.671
24.6586	-17.065	197.872
-38.3414	-16.065	182.383
-36.3414	-16.065	41.8609
-34.3414	-16.065	101.247
-32.3414	-16.065	370.709
-30.3414	-16.065	222.174
-28.3414	-16.065	188.396
-26.3414	-16.065	203.249
-24.3414	-16.065	210.935
-22.3414	-16.065	183.564
-20.3414	-16.065	20.8163
-18.3414	-16.065	13.5396
-16.3414	-16.065	284.058
-14.3414	-16.065	528.326
-12.3414	-16.065	306.403
-10.3414	-16.065	137.633
-8.341423	-16.065	67.0123
-6.341423	-16.065	196.908
-4.341423	-16.065	164.164
-2.341423	-16.065	41.4536
-0.341423	-16.065	230.553
1.658577	-16.065	72.2672
3.658577	-16.065	32.1653
5.658577	-16.065	140.342
7.658577	-16.065	188.137
9.658577	-16.065	207.544
11.6586	-16.065	359.536
13.6586	-16.065	35.6068
15.6586	-16.065	195.816
17.6586	-16.065	78.9248
19.6586	-16.065	118.953
21.6586	-16.065	126.69
23.6586	-16.065	173.097
-39.3414	-15.065	35.7439
-37.3414	-15.065	57.2241
-35.3414	-15.065	464.482
-33.3414	-15.065	458.368
-31.3414	-15.065	279.11
-29.3414	-15.065	222.335
-27.3414	-15.065	228.774
-25.3414	-15.065	209.157
-23.3414	-15.065	188.885
-21.3414	-15.065	129.515
-19.3414	-15.065	8.571278
-17.3414	-15.065	230.622
-15.3414	-15.065	347.907
-13.3414	-15.065	362.322
-11.3414	-15.065	84.0637
-9.341423	-15.065	140.38
-7.341423	-15.065	107.448
-5.341423	-15.065	163.726
-3.341423	-15.065	58.2532
-1.341423	-15.065	52.1535
0.658577	-15.065	207.925
2.658577	-15.065	73.7263
4.658577	-15.065	142.841
6.658577	-15.065	303.453
8.658577	-15.065	209.897
10.6586	-15.065	228.898
12.6586	-15.065	30.186
14.6586	-15.065	93.6135
16.6586	-15.065	74.0904
18.6586	-15.065	130.61
20.6586	-15.065	43.6052
22.6586	-15.065	227.003
24.6586	-15.065	75.9881
-38.3414	-14.065	87.9201
-36.3414	-14.065	464.66
-34.3414	-14.065	394.937
-32.3414	-14.065	443.23
-30.3414	-14.065	257.751
-28.3414	-14.065	205.048
-26.3414	-14.065	247.876
-24.3414	-14.065	176.039
-22.3414	-14.065	163.259
-20.3414	-14.065	95.8872
-18.3414	-14.065	104.12
-16.3414	-14.065	171.326
-14.3414	-14.065	318.713
-12.3414	-14.065	126.883
-10.3414	-14.065	112.356
-8.341423	-14.065	55.4467
-6.341423	-14.065	99.6815
-4.341423	-14.065	47.4709
-2.341423	-14.065	38.0329
-0.341423	-14.065	134.633
1.658577	-14.065	128.223
3.658577	-14.065	48.2071
5.658577	-14.065	153.548
7.658577	-14.065	295.452
9.658577	-14.065	315.968
11.6586	-14.065	13.3155
13.6586	-14.065	111.491
15.6586	-14.065	4.350111
17.6586	-14.065	14.7635
19.6586	-14.065	56.5136
21.6586	-14.065	150.604
23.6586	-14.065	96.1129
-39.3414	-13.065	266.552
-37.3414	-13.065	479.23
-35.3414	-13.065	404.803
-33.3414	-13.065	418.633
-31.3414	-13.065	389.127
-29.3414	-13.065	283.556
-27.3414	-13.065	238.341
-25.3414	-13.065	189.699
-23.3414	-13.065	191.776
-21.3414	-13.065	124.066
-19.3414	-13.065	69.4405
-17.3414	-13.065	13.968
-15.3414	-13.065	83.8512
-13.3414	-13.065	9.658459
-11.3414	-13.065	113.462
-9.341423	-13.065	69.5223
-7.341423	-13.065	78.1555
-5.341423	-13.065	93.9861
-3.341423	-13.065	80.6111
-1.341423	-13.065	113.509
0.658577	-13.065	154.479
2.658577	-13.065	61.5072
4.658577	-13.065	76.341
6.658577	-13.065	127.006
8.658577	-13.065	301.358
10.6586	-13.065	12.7948
12.6586	-13.065	17.8382
14.6586	-13.065	108.516
16.6586	-13.065	59.9353
18.6586	-13.065	123.23
20.6586	-13.065	229.576
22.6586	-13.065	196.598
24.6586	-13.065	80.8585
-38.3414	-12.065	442.118
-36.3414	-12.065	442.498
-34.3414	-12.065	399.532
-32.3414	-12.065	383.179
-30.3414	-12.065	354.863
-28.3414	-12.065	290.268
-26.3414	-12.065	245.144
-24.3414	-12.065	180.016
-22.3414	-12.065	195.815
-20.3414	-12.065	41.0218
-18.3414	-12.065	26.7133
-16.3414	-12.065	18.8356
-14.3414	-12.065	13.4351
-12.3414	-12.065	128.33
-10.3414	-12.065	103.718
-8.341423	-12.065	65.8518
-6.341423	-12.065	172.641
-4.341423	-12.065	55.7239
-2.341423	-12.065	155.042
-0.341423	-12.065	158.842
1.658577	-12.065	63.5712
3.658577	-12.065	39.6101
5.658577	-12.065	70.4076
7.658577	-12.065	165.939
9.658577	-12.065	9.335245
11.6586	-12.065	4.361305
13.6586	-12.065	32.6438
15.6586	-12.065	176.377
17.6586	-12.065	183.301
19.6586	-12.065	114.962
21.6586	-12.065	108.281
23.6586	-12.065	165.012
-39.3414	-11.065	446.789
-37.3414	-11.065	454.933
-35.3414	-11.065	374.093
-33.3414	-11.065	376.934
-31.3414	-11.065	347.868
-29.3414	-11.065	412.04
-27.3414	-11.065	315.552
-25.3414	-11.065	222.536
-23.3414	-11.065	178.314
-21.3414	-11.065	68.7465
-19.3414	-11.065	123.228
-17.3414	-11.065	41.1647
-15.3414	-11.065	134.665
-13.3414	-11.065	32.4039
-11.3414	-11.065	142.545
-9.341423	-11.065	42.6874
-7.341423	-11.065	107.176
-5.341423	-11.065	61.5914
-3.341423	-11.065	57.8706
-1.341423	-11.065	112.26
0.658577	-11.065	85.7979
2.658577	-11.065	132.558
4.658577	-11.065	23.2863
6.658577	-11.065	56.6736
8.658577	-11.065	160.092
10.6586	-11.065	1.870225
12.6586	-11.065	12.792
14.6586	-11.065	147.637
16.6586	-11.065	97.3774
18.6586	-11.065	61.7336
20.6586	-11.065	34.7887
22.6586	-11.065	47.4554
24.6586	-11.065	135.804
-38.3414	-10.065	447.868
-36.3414	-10.065	371.488
-34.3414	-10.065	362.017
-32.3414	-10.065	419.978
-30.3414	-10.065	366.398
-28.3414	-10.065	381.232
-26.3414	-10.065	417.806
-24.3414	-10.065	186.822
-22.3414	-10.065	12.6956
-20.3414	-10.065	126.525
-18.3414	-10.065	74.2597
-16.3414	-10.065	127.436
-14.3414	-10.065	216.16
-12.3414	-10.065	254.492
-10.3414	-10.065	127.517
-8.341423	-10.065	26.4828
-6.341423	-10.065	16.4924
-4.341423	-10.065	29.3347
-2.341423	-10.065	48.563
-0.341423	-10.065	143.92
1.658577	-10.065	159.371
3.658577	-10.065	15.2175
5.658577	-10.065	89.982
7.658577	-10.065	182.675
9.658577	-10.065	4.579411
11.6586	-10.065	2.648247
13.6586	-10.065	97.9718
15.6586	-10.065	159.499
17.6586	-10.065	50.0522
19.6586	-10.065	51.3815
21.6586	-10.065	43.5054
23.6586	-10.065	70.7855
-39.3414	-9.065000	395.973
-37.3414	-9.065000	360.275
-35.3414	-9.065000	448.407
-33.3414	-9.065000	416.592
-31.3414	-9.065000	429.542
-29.3414	-9.065000	397.935
-27.3414	-9.065000	429.517
-25.3414	-9.065000	143.774
-23.3414	-9.065000	9.068452
-21.3414	-9.065000	8.245972
-19.3414	-9.065000	99.333
-17.3414	-9.065000	95.1706
-15.3414	-9.065000	317.077
-13.3414	-9.065000	161.022
-11.3414	-9.065000	472.445
-9.341423	-9.065000	135.904
-7.341423	-9.065000	38.0104
-5.341423	-9.065000	9.014801
-3.341423	-9.065000	31.0709
-1.341423	-9.065000	72.4785
0.658577	-9.065000	133.025
2.658577	-9.065000	16.0067
4.658577	-9.065000	76.4432
6.658577	-9.065000	206.305
8.658577	-9.065000	6.089754
10.6586	-9.065000	14.4776
12.6586	-9.065000	87.9413
14.6586	-9.065000	63.1751
16.6586	-9.065000	96.4971
18.6586	-9.065000	42.0758
20.6586	-9.065000	33.1874
22.6586	-9.065000	59.0727
24.6586	-9.065000	33.7267
-38.3414	-8.065000	348.778
-36.3414	-8.065000	438.083
-34.3414	-8.065000	464.13
-32.3414	-8.065000	496.244
-30.3414	-8.065000	374.757
-28.3414	-8.065000	401.267
-26.3414	-8.065000	264.75
-24.3414	-8.065000	96.8132
-22.3414	-8.065000	7.274275
-20.3414	-8.065000	45.8104
-18.3414	-8.065000	131.179
-16.3414	-8.065000	281.63
-14.3414	-8.065000	170.484
-12.3414	-8.065000	212.706
-10.3414	-8.065000	237.801
-8.341423	-8.065000	196.068
-6.341423	-8.065000	13.0221
-4.341423	-8.065000	13.7212
-2.341423	-8.065000	19.0862
-0.341423	-8.065000	43.9028
1.658577	-8.065000	18.9178
3.658577	-8.065000	78.2524
5.658577	-8.065000	232.15
7.658577	-8.065000	154.578
9.658577	-8.065000	50.7382
11.6586	-8.065000	3.168107
13.6586	-8.065000	111.913
15.6586	-8.065000	104.02
17.6586	-8.065000	147.599
19.6586	-8.065000	54.3036
21.6586	-8.065000	28.2193
23.6586	-8.065000	103.98
-39.3414	-7.065000	370.941
-37.3414	-7.065000	416.083
-35.3414	-7.065000	466.219
-33.3414	-7.065000	503.881
-31.3414	-7.065000	407.573
-29.3414	-7.065000	385.875
-27.3414	-7.065000	114.761
-25.3414	-7.065000	303.726
-23.3414	-7.065000	68.348
-21.3414	-7.065000	41.125
-19.3414	-7.065000	174.368
-17.3414	-7.065000	336.345
-15.3414	-7.065000	195.547
-13.3414	-7.065000	187.392
-11.3414	-7.065000	245.436
-9.341423	-7.065000	345.493
-7.341423	-7.065000	13.6839
-5.341423	-7.065000	4.704908
-3.341423	-7.065000	96.5728
-1.341423	-7.065000	5.525575
0.658577	-7.065000	4.517164
2.658577	-7.065000	99.4423
4.658577	-7.065000	169.873
6.658577	-7.065000	78.8972
8.658577	-7.065000	3.156984
10.6586	-7.065000	62.7807
12.6586	-7.065000	25.1116
14.6586	-7.065000	282.504
16.6586	-7.065000	120.65
18.6586	-7.065000	76.8821
20.6586	-7.065000	143.976
22.6586	-7.065000	100.964
24.6586	-7.065000	66.5499
-38.3414	-6.065000	356.02
-36.3414	-6.065000	410.098
-34.3414	-6.065000	454.423
-32.3414	-6.065000	481.21
-30.3414	-6.065000	410.213
-28.3414	-6.065000	355.292
-26.3414	-6.065000	277.88
-24.3414	-6.065000	341.456
-22.3414	-6.065000	247.498
-20.3414	-6.065000	68.8411
-18.3414	-6.065000	6.157434
-16.3414	-6.065000	296.261
-14.3414	-6.065000	291.119
-12.3414	-6.065000	282.68
-10.3414	-6.065000	309.674
-8.341423	-6.065000	439.48
-6.341423	-6.065000	146.575
-4.341423	-6.065000	28.8783
-2.341423	-6.065000	46.6334
-0.341423	-6.065000	5.775383
1.658577	-6.065000	2.271372
3.658577	-6.065000	192.891
5.658577	-6.065000	177.502
7.658577	-6.065000	120.356
9.658577	-6.065000	12.0617
11.6586	-6.065000	160.471
13.6586	-6.065000	208.577
15.6586	-6.065000	227.207
17.6586	-6.065000	65.1458
19.6586	-6.065000	76.2417
21.6586	-6.065000	109.892
23.6586	-6.065000	130.335
-39.3414	-5.065000	32.9221
-37.3414	-5.065000	312.067
-35.3414	-5.065000	334.916
-33.3414	-5.065000	502.019
-31.3414	-5.065000	435.112
-29.3414	-5.065000	341.545
-27.3414	-5.065000	244.596
-25.3414	-5.065000	219.47
-23.3414	-5.065000	243.818
-21.3414	-5.065000	194.682
-19.3414	-5.065000	4.687147
-17.3414	-5.065000	10.7196
-15.3414	-5.065000	279.429
-13.3414	-5.065000	388.081
-11.3414	-5.065000	417.234
-9.341423	-5.065000	468.623
-7.341423	-5.065000	373.995
-5.341423	-5.065000	174.574
-3.341423	-5.065000	4.148966
-1.341423	-5.065000	24.3769
0.658577	-5.065000	70.7651
2.658577	-5.065000	8.842758
4.658577	-5.065000	131.626
6.658577	-5.065000	104.368
8.658577	-5.065000	11.2594
10.6586	-5.065000	199.8
12.6586	-5.065000	307.174
14.6586	-5.065000	279.234
16.6586	-5.065000	188.771
18.6586	-5.065000	86.8142
20.6586	-5.065000	90.6861
22.6586	-5.065000	42.4237
24.6586	-5.065000	52.1193
-38.3414	-4.065000	47.3315
-36.3414	-4.065000	144.837
-34.3414	-4.065000	381.108
-32.3414	-4.065000	196.884
-30.3414	-4.065000	139.719
-28.3414	-4.065000	134.426
-26.3414	-4.065000	284.55
-24.3414	-4.065000	265.465
-22.3414	-4.065000	182.257
-20.3414	-4.065000	139.213
-18.3414	-4.065000	41.9357
-16.3414	-4.065000	74.4837
-14.3414	-4.065000	347.686
-12.3414	-4.065000	253.87
-10.3414	-4.065000	229.809
-8.341423	-4.065000	274.906
-6.341423	-4.065000	167.247
-4.341423	-4.065000	7.864634
-2.341423	-4.065000	6.844390
-0.341423	-4.065000	127.529
1.658577	-4.065000	44.403
3.658577	-4.065000	8.716020
5.658577	-4.065000	102.525
7.658577	-4.065000	184.012
9.658577	-4.065000	202.452
11.6586	-4.065000	107.471
13.6586	-4.065000	386.84
15.6586	-4.065000	62.9073
17.6586	-4.065000	182.999
19.6586	-4.065000	140.852
21.6586	-4.065000	144.965
23.6586	-4.065000	119.902
-39.3414	-3.065000	0.000000
-37.3414	-3.065000	67.7458
-35.3414	-3.065000	183.877
-33.3414	-3.065000	171.669
-31.3414	-3.065000	52.9552
-29.3414	-3.065000	21.1345
-27.3414	-3.065000	66.0699
-25.3414	-3.065000	198.34
-23.3414	-3.065000	293.923
-21.3414	-3.065000	237.416
-19.3414	-3.065000	150.808
-17.3414	-3.065000	156.793
-15.3414	-3.065000	214.464
-13.3414	-3.065000	313.027
-11.3414	-3.065000	130.657
-9.341423	-3.065000	141.842
-7.341423	-3.065000	73.0973
-5.341423	-3.065000	173.147
-3.341423	-3.065000	39.4167
-1.341423	-3.065000	327.337
0.658577	-3.065000	263.084
2.658577	-3.065000	9.746346
4.658577	-3.065000	15.9573
6.658577	-3.065000	215.48
8.658577	-3.065000	190.304
10.6586	-3.065000	100.378
12.6586	-3.065000	367.715
14.6586	-3.065000	312.185
16.6586	-3.065000	206.007
18.6586	-3.065000	197.81
20.6586	-3.065000	95.2483
22.6586	-3.065000	13.2432
24.6586	-3.065000	102.967
-38.3414	-2.065000	70.3463
-36.3414	-2.065000	18.1738
-34.3414	-2.065000	47.785
-32.3414	-2.065000	11.5529
-30.3414	-2.065000	224.872
-28.3414	-2.065000	3.559541
-26.3414	-2.065000	262.288
-24.3414	-2.065000	390.107
-22.3414	-2.065000	208.433
-20.3414	-2.065000	68.9395
-18.3414	-2.065000	24.3465
-16.3414	-2.065000	97.3281
-14.3414	-2.065000	387.74
-12.3414	-2.065000	164.691
-10.3414	-2.065000	283.465
-8.341423	-2.065000	129.342
-6.341423	-2.065000	130.167
-4.341423	-2.065000	104.389
-2.341423	-2.065000	307.632
-0.341423	-2.065000	362.353
1.658577	-2.065000	197.856
3.658577	-2.065000	75.4829
5.658577	-2.065000	139.267
7.658577	-2.065000	215.67
9.658577	-2.065000	93.0034
11.6586	-2.065000	123.343
13.6586	-2.065000	370.79
15.6586	-2.065000	300.318
17.6586	-2.065000	163.052
19.6586	-2.065000	139.626
21.6586	-2.065000	8.162845
23.6586	-2.065000	39.3016
-39.3414	-1.065000	2.930989
-37.3414	-1.065000	55.8304
-35.3414	-1.065000	34.1806
-33.3414	-1.065000	147.053
-31.3414	-1.065000	90.675
-29.3414	-1.065000	6.986351
-27.3414	-1.065000	5.329963
-25.3414	-1.065000	273.075
-23.3414	-1.065000	137.543
-21.3414	-1.065000	86.5615
-19.3414	-1.065000	25.8046
-17.3414	-1.065000	92.4467
-15.3414	-1.065000	230.981
-13.3414	-1.065000	267.653
-11.3414	-1.065000	230.488
-9.341423	-1.065000	125.304
-7.341423	-1.065000	113.324
-5.341423	-1.065000	329.391
-3.341423	-1.065000	72.6294
-1.341423	-1.065000	321.314
0.658577	-1.065000	319.876
2.658577	-1.065000	179.522
4.658577	-1.065000	82.3719
6.658577	-1.065000	69.6918
8.658577	-1.065000	52.8436
10.6586	-1.065000	132.069
12.6586	-1.065000	304.919
14.6586	-1.065000	319.641
16.6586	-1.065000	198.441
18.6586	-1.065000	45.0682
20.6586	-1.065000	110.414
22.6586	-1.065000	41.7231
24.6586	-1.065000	51.1513
-38.3414	-0.065000	3.698305
-36.3414	-0.065000	8.657269
-34.3414	-0.065000	55.8755
-32.3414	-0.065000	32.1708
-30.3414	-0.065000	11.7839
-28.3414	-0.065000	41.2429
-26.3414	-0.065000	36.1534
-24.3414	-0.065000	337.358
-22.3414	-0.065000	46.7369
-20.3414	-0.065000	43.3165
-18.3414	-0.065000	163.721
-16.3414	-0.065000	131.454
-14.3414	-0.065000	335.013
-12.3414	-0.065000	340.779
-10.3414	-0.065000	215.023
-8.341423	-0.065000	178.875
-6.341423	-0.065000	202.762
-4.341423	-0.065000	280.169
-2.341423	-0.065000	347.322
-0.341423	-0.065000	329.082
1.658577	-0.065000	294.79
3.658577	-0.065000	85.9103
5.658577	-0.065000	214.823
7.658577	-0.065000	215.637
9.658577	-0.065000	239.049
11.6586	-0.065000	461.139
13.6586	-0.065000	279.852
15.6586	-0.065000	237.046
17.6586	-0.065000	193.415
19.6586	-0.065000	36.9553
21.6586	-0.065000	243.807
23.6586	-0.065000	40.7671
-39.3414	0.935000	5.987528
-37.3414	0.935000	5.260173
-35.3414	0.935000	37.2814
-33.3414	0.935000	91.315
-31.3414	0.935000	100.005
-29.3414	0.935000	6.180065
-27.3414	0.935000	5.275241
-25.3414	0.935000	357.696
-23.3414	0.935000	309.315
-21.3414	0.935000	190.606
-19.3414	0.935000	186.362
-17.3414	0.935000	132.62
-15.3414	0.935000	83.6566
-13.3414	0.935000	364.115
-11.3414	0.935000	334.689
-9.341423	0.935000	213.028
-7.341423	0.935000	143.504
-5.341423	0.935000	425.894
-3.341423	0.935000	151.162
-1.341423	0.935000	397.403
0.658577	0.935000	295.813
2.658577	0.935000	79.3288
4.658577	0.935000	150.7
6.658577	0.935000	321.254
8.658577	0.935000	298.378
10.6586	0.935000	340.937
12.6586	0.935000	398.816
14.6586	0.935000	194.008
16.6586	0.935000	193.517
18.6586	0.935000	124.865
20.6586	0.935000	254.004
22.6586	0.935000	318.544
24.6586	0.935000	81.6099
-38.3414	1.935000	11.1455
-36.3414	1.935000	108.151
-34.3414	1.935000	62.6993
-32.3414	1.935000	263.184
-30.3414	1.935000	119.311
-28.3414	1.935000	9.267400
-26.3414	1.935000	187.383
-24.3414	1.935000	73.9947
-22.3414	1.935000	292.395
-20.3414	1.935000	284.364
-18.3414	1.935000	9.489702
-16.3414	1.935000	3.659081
-14.3414	1.935000	450.635
-12.3414	1.935000	474.419
-10.3414	1.935000	362.496
-8.341423	1.935000	220.947
-6.341423	1.935000	235.197
-4.341423	1.935000	333.145
-2.341423	1.935000	374.567
-0.341423	1.935000	330.524
1.658577	1.935000	51.5729
3.658577	1.935000	91.66
5.658577	1.935000	278.813
7.658577	1.935000	240.855
9.658577	1.935000	366.622
11.6586	1.935000	340.142
13.6586	1.935000	311.964
15.6586	1.935000	207.064
17.6586	1.935000	230.585
19.6586	1.935000	98.8822
21.6586	1.935000	227.302
23.6586	1.935000	243.06
-39.3414	2.935000	20.424
-37.3414	2.935000	154.613
-35.3414	2.935000	82.7365
-33.3414	2.935000	66.185
-31.3414	2.935000	157.362
-29.3414	2.935000	190.501
-27.3414	2.935000	211.917
-25.3414	2.935000	369.961
-23.3414	2.935000	98.6348
-21.3414	2.935000	352.626
-19.3414	2.935000	35.6775
-17.3414	2.935000	10.4433
-15.3414	2.935000	5.530935
-13.3414	2.935000	134.319
-11.3414	2.935000	311.756
-9.341423	2.935000	261.093
-7.341423	2.935000	193.759
-5.341423	2.935000	387.993
-3.341423	2.935000	332.029
-1.341423	2.935000	303.479
0.658577	2.935000	323.577
2.658577	2.935000	162.659
4.658577	2.935000	152.846
6.658577	2.935000	19.4667
8.658577	2.935000	324.128
10.6586	2.935000	345.354
12.6586	2.935000	223.018
14.6586	2.935000	440.261
16.6586	2.935000	179.597
18.6586	2.935000	77.3943
20.6586	2.935000	67.6879
22.6586	2.935000	288.924
24.6586	2.935000	96.5145
-38.3414	3.935000	195.728
-36.3414	3.935000	188.955
-34.3414	3.935000	40.6902
-32.3414	3.935000	123.433
-30.3414	3.935000	220.489
-28.3414	3.935000	354.641
-26.3414	3.935000	266.638
-24.3414	3.935000	193.13
-22.3414	3.935000	151.939
-20.3414	3.935000	328.373
-18.3414	3.935000	254.294
-16.3414	3.935000	21.8767
-14.3414	3.935000	8.264859
-12.3414	3.935000	186.571
-10.3414	3.935000	361.083
-8.341423	3.935000	103.473
-6.341423	3.935000	115.167
-4.341423	3.935000	48.7064
-2.341423	3.935000	378.316
-0.341423	3.935000	334.582
1.658577	3.935000	291.625
3.658577	3.935000	132.49
5.658577	3.935000	276.847
7.658577	3.935000	196.904
9.658577	3.935000	361.297
11.6586	3.935000	236.534
13.6586	3.935000	293.043
15.6586	3.935000	223.442
17.6586	3.935000	299.288
19.6586	3.935000	345.381
21.6586	3.935000	251.831
23.6586	3.935000	161.897
-39.3414	4.935000	416.052
-37.3414	4.935000	418.776
-35.3414	4.935000	472.553
-33.3414	4.935000	69.5885
-31.3414	4.935000	182.136
-29.3414	4.935000	187.314
-27.3414	4.935000	138.154
-25.3414	4.935000	349.387
-23.3414	4.935000	188.256
-21.3414	4.935000	145.05
-19.3414	4.935000	325.116
-17.3414	4.935000	353.642
-15.3414	4.935000	193.676
-13.3414	4.935000	2.949268
-11.3414	4.935000	200.467
-9.341423	4.935000	332.445
-7.341423	4.935000	148.147
-5.341423	4.935000	13.0477
-3.341423	4.935000	248.858
-1.341423	4.935000	280.934
0.658577	4.935000	338.241
2.658577	4.935000	145.032
4.658577	4.935000	86.8319
6.658577	4.935000	285.623
8.658577	4.935000	424.968
10.6586	4.935000	313.495
12.6586	4.935000	267.195
14.6586	4.935000	373.742
16.6586	4.935000	280.218
18.6586	4.935000	363.286
20.6586	4.935000	224.952
22.6586	4.935000	277.858
24.6586	4.935000	61.6036
-38.3414	5.935000	442.608
-36.3414	5.935000	427.991
-34.3414	5.935000	323.398
-32.3414	5.935000	260.336
-30.3414	5.935000	26.0382
-28.3414	5.935000	4.451845
-26.3414	5.935000	199.737
-24.3414	5.935000	332.146
-22.3414	5.935000	68.2251
-20.3414	5.935000	126.157
-18.3414	5.935000	290.41
-16.3414	5.935000	323.232
-14.3414	5.935000	290.966
-12.3414	5.935000	58.5222
-10.3414	5.935000	303.804
-8.341423	5.935000	259.725
-6.341423	5.935000	212.949
-4.341423	5.935000	16.1438
-2.341423	5.935000	296.53
-0.341423	5.935000	292.141
1.658577	5.935000	344.414
3.658577	5.935000	120.303
5.658577	5.935000	103.959
7.658577	5.935000	187.48
9.658577	5.935000	354.476
11.6586	5.935000	374.623
13.6586	5.935000	268.028
15.6586	5.935000	327.666
17.6586	5.935000	105.521
19.6586	5.935000	253.026
21.6586	5.935000	383.254
23.6586	5.935000	221.867
-39.3414	6.935000	514.458
-37.3414	6.935000	463.629
-35.3414	6.935000	384.69
-33.3414	6.935000	297.83
-31.3414	6.935000	129.226
-29.3414	6.935000	170.477
-27.3414	6.935000	47.258
-25.3414	6.935000	202.946
-23.3414	6.935000	114.791
-21.3414	6.935000	113.001
-19.3414	6.935000	392.919
-17.3414	6.935000	306.781
-15.3414	6.935000	425.732
-13.3414	6.935000	270.078
-11.3414	6.935000	71.2421
-9.341423	6.935000	133.082
-7.341423	6.935000	157.448
-5.341423	6.935000	76.6753
-3.341423	6.935000	171.107
-1.341423	6.935000	305.898
0.658577	6.935000	332.372
2.658577	6.935000	160.683
4.658577	6.935000	49.2833
6.658577	6.935000	224.601
8.658577	6.935000	180.057
10.6586	6.935000	383.98
12.6586	6.935000	373.702
14.6586	6.935000	41.8135
16.6586	6.935000	104.72
18.6586	6.935000	333.933
20.6586	6.935000	367.767
22.6586	6.935000	130.908
24.6586	6.935000	233.655
-38.3414	7.935000	451.033
-36.3414	7.935000	462.071
-34.3414	7.935000	396.03
-32.3414	7.935000	332.372
-30.3414	7.935000	304.068
-28.3414	7.935000	86.6926
-26.3414	7.935000	132.012
-24.3414	7.935000	137
-22.3414	7.935000	94.1267
-20.3414	7.935000	185.299
-18.3414	7.935000	277.94
-16.3414	7.935000	288.482
-14.3414	7.935000	246.706
-12.3414	7.935000	378.81
-10.3414	7.935000	78.3379
-8.341423	7.935000	93.1361
-6.341423	7.935000	150.088
-4.341423	7.935000	100.726
-2.341423	7.935000	278.146
-0.341423	7.935000	339.567
1.658577	7.935000	245.048
3.658577	7.935000	122.44
5.658577	7.935000	70.1995
7.658577	7.935000	121.256
9.658577	7.935000	235.512
11.6586	7.935000	280.157
13.6586	7.935000	212.324
15.6586	7.935000	139.235
17.6586	7.935000	174.514
19.6586	7.935000	14.4188
21.6586	7.935000	271.208
23.6586	7.935000	229.21
-39.3414	8.935000	460.687
-37.3414	8.935000	386.751
-35.3414	8.935000	443.423
-33.3414	8.935000	434.483
-31.3414	8.935000	382.007
-29.3414	8.935000	246.241
-27.3414	8.935000	168.266
-25.3414	8.935000	174.224
-23.3414	8.935000	105.083
-21.3414	8.935000	113.237
-19.3414	8.935000	206.478
-17.3414	8.935000	335.992
-15.3414	8.935000	537.895
-13.3414	8.935000	327.325
-11.3414	8.935000	91.965
-9.341423	8.935000	80.8811
-7.341423	8.935000	109.052
-5.341423	8.935000	148.912
-3.341423	8.935000	183.632
-1.341423	8.935000	378.534
0.658577	8.935000	331.94
2.658577	8.935000	140.274
4.658577	8.935000	223.42
6.658577	8.935000	54.1932
8.658577	8.935000	59.5574
10.6586	8.935000	148.839
12.6586	8.935000	254.268
14.6586	8.935000	131.466
16.6586	8.935000	30.7391
18.6586	8.935000	8.632663
20.6586	8.935000	2.593493
22.6586	8.935000	16.3741
24.6586	8.935000	117.352
-38.3414	9.935000	340.045
-36.3414	9.935000	335.277
-34.3414	9.935000	411.492
-32.3414	9.935000	417.857
-30.3414	9.935000	345.806
-28.3414	9.935000	282.246
-26.3414	9.935000	158.091
-24.3414	9.935000	43.6001
-22.3414	9.935000	171.624
-20.3414	9.935000	167.272
-18.3414	9.935000	232.194
-16.3414	9.935000	326.496
-14.3414	9.935000	392.1
-12.3414	9.935000	202.692
-10.3414	9.935000	81.9702
-8.341423	9.935000	88.6402
-6.341423	9.935000	386.645
-4.341423	9.935000	263.411
-2.341423	9.935000	213.402
-0.341423	9.935000	400.87
1.658577	9.935000	120.721
3.658577	9.935000	127.394
5.658577	9.935000	49.9558
7.658577	9.935000	99.9664
9.658577	9.935000	159.959
11.6586	9.935000	150.62
13.6586	9.935000	9.757328
15.6586	9.935000	3.752163
17.6586	9.935000	8.945217
19.6586	9.935000	0.000000
21.6586	9.935000	110.031
23.6586	9.935000	5.394198
-39.3414	10.935	280.137
-37.3414	10.935	337.343
-35.3414	10.935	377.943
-33.3414	10.935	282.828
-31.3414	10.935	474.386
-29.3414	10.935	438.411
-27.3414	10.935	126.982
-25.3414	10.935	29.6835
-23.3414	10.935	33.4002
-21.3414	10.935	84.8796
-19.3414	10.935	245.539
-17.3414	10.935	196.125
-15.3414	10.935	365.667
-13.3414	10.935	248.782
-11.3414	10.935	79.7001
-9.341423	10.935	90.0304
-7.341423	10.935	131.483
-5.341423	10.935	371.012
-3.341423	10.935	81.509
-1.341423	10.935	344.228
0.658577	10.935	301.8
2.658577	10.935	165.981
4.658577	10.935	45.8286
6.658577	10.935	79.5473
8.658577	10.935	41.3799
10.6586	10.935	48.2321
12.6586	10.935	128.393
14.6586	10.935	8.079664
16.6586	10.935	9.197454
18.6586	10.935	0.000000
20.6586	10.935	101.639
22.6586	10.935	119.326
24.6586	10.935	43.8001
-38.3414	11.935	343.046
-36.3414	11.935	381.537
-34.3414	11.935	299.597
-32.3414	11.935	306.157
-30.3414	11.935	465.423
-28.3414	11.935	363.932
-26.3414	11.935	105.595
-24.3414	11.935	9.694776
-22.3414	11.935	158.453
-20.3414	11.935	110.526
-18.3414	11.935	148.45
-16.3414	11.935	156.361
-14.3414	11.935	393.937
-12.3414	11.935	103.063
-10.3414	11.935	49.6655
-8.341423	11.935	89.0796
-6.341423	11.935	110.944
-4.341423	11.935	245.629
-2.341423	11.935	72.7052
-0.341423	11.935	340.468
1.658577	11.935	183.086
3.658577	11.935	31.8044
5.658577	11.935	94.5817
7.658577	11.935	245.848
9.658577	11.935	149.582
11.6586	11.935	236.939
13.6586	11.935	62.7874
15.6586	11.935	0.000000
17.6586	11.935	83.9227
19.6586	11.935	4.922447
21.6586	11.935	72.5741
23.6586	11.935	148.205
-39.3414	12.935	364.82
-37.3414	12.935	363.999
-35.3414	12.935	378.599
-33.3414	12.935	370.411
-31.3414	12.935	398.06
-29.3414	12.935	451.798
-27.3414	12.935	65.4201
-25.3414	12.935	6.399900
-23.3414	12.935	231.872
-21.3414	12.935	190.816
-19.3414	12.935	327.683
-17.3414	12.935	125.005
-15.3414	12.935	367.098
-13.3414	12.935	205.589
-11.3414	12.935	91.4484
-9.341423	12.935	88.2444
-7.341423	12.935	117.439
-5.341423	12.935	136.154
-3.341423	12.935	236.814
-1.341423	12.935	202.063
0.658577	12.935	214.353
2.658577	12.935	207.157
4.658577	12.935	30.9072
6.658577	12.935	313.062
8.658577	12.935	166.56
10.6586	12.935	258.889
12.6586	12.935	173.572
14.6586	12.935	1.065169
16.6586	12.935	79.397
18.6586	12.935	0.000000
20.6586	12.935	31.056
22.6586	12.935	37.6866
24.6586	12.935	25.7892
-38.3414	13.935	395.644
-36.3414	13.935	406.412
-34.3414	13.935	416.597
-32.3414	13.935	344.147
-30.3414	13.935	398.731
-28.3414	13.935	149.069
-26.3414	13.935	118.341
-24.3414	13.935	98.2281
-22.3414	13.935	230.425
-20.3414	13.935	220.847
-18.3414	13.935	273.069
-16.3414	13.935	151.452
-14.3414	13.935	392.029
-12.3414	13.935	126.701
-10.3414	13.935	34.8332
-8.341423	13.935	78.2522
-6.341423	13.935	126.43
-4.341423	13.935	189.646
-2.341423	13.935	69.7253
-0.341423	13.935	146.696
1.658577	13.935	118.637
3.658577	13.935	41.8823
5.658577	13.935	9.499587
7.658577	13.935	238.081
9.658577	13.935	226.763
11.6586	13.935	162
13.6586	13.935	14.2685
15.6586	13.935	18.8398
17.6586	13.935	7.635178
19.6586	13.935	13.0752
21.6586	13.935	28.6313
23.6586	13.935	7.662749
-39.3414	14.935	464.199
-37.3414	14.935	448.437
-35.3414	14.935	446.143
-33.3414	14.935	376.508
-31.3414	14.935	382.411
-29.3414	14.935	169.025
-27.3414	14.935	135.147
-25.3414	14.935	112.578
-23.3414	14.935	40.1007
-21.3414	14.935	329.083
-19.3414	14.935	223.907
-17.3414	14.935	140.356
-15.3414	14.935	208.534
-13.3414	14.935	215.848
-11.3414	14.935	69.3325
-9.341423	14.935	12.452
-7.341423	14.935	268.009
-5.341423	14.935	119.672
-3.341423	14.935	102.342
-1.341423	14.935	171.324
0.658577	14.935	116.982
2.658577	14.935	229.492
4.658577	14.935	8.351082
6.658577	14.935	7.165141
8.658577	14.935	168.411
10.6586	14.935	203.104
12.6586	14.935	146.213
14.6586	14.935	0.000000
16.6586	14.935	3.907944
18.6586	14.935	4.064318
20.6586	14.935	0.000000
22.6586	14.935	0.000000
24.6586	14.935	0.000000
-38.3414	15.935	480.369
-36.3414	15.935	420.008
-34.3414	15.935	363.361
-32.3414	15.935	401.658
-30.3414	15.935	208.193
-28.3414	15.935	140.021
-26.3414	15.935	147.667
-24.3414	15.935	89.6189
-22.3414	15.935	8.077610
-20.3414	15.935	120.146
-18.3414	15.935	163.196
-16.3414	15.935	326.822
-14.3414	15.935	347.158
-12.3414	15.935	382.792
-10.3414	15.935	8.081224
-8.341423	15.935	13.5428
-6.341423	15.935	107.515
-4.341423	15.935	28.3722
-2.341423	15.935	84.1983
-0.341423	15.935	150.198
1.658577	15.935	260.602
3.658577	15.935	71.2192
5.658577	15.935	0.000000
7.658577	15.935	3.623594
9.658577	15.935	214.13
11.6586	15.935	35.3579
13.6586	15.935	31.6809
15.6586	15.935	0.000000
17.6586	15.935	0.000000
19.6586	15.935	0.000000
21.6586	15.935	0.000000
23.6586	15.935	3.129701
24.6586	15.935	4.241882