File: data/derived_data/raman/20170920_Gr-NH2_for_Radisurf/20170920 Gr-NH for Radisurf map 2/DDp FWHM.txt
#XList		#YList		#IList
-39.3414	-21.065	183.123
-37.3414	-21.065	213.825
-35.3414	-21.065	170.28
-33.3414	-21.065	190.056
-31.3414	-21.065	196.455
-29.3414	-21.065	173.768
-27.3414	-21.065	176.85
-25.3414	-21.065	159.969
-23.3414	-21.065	32.1398
-21.3414	-21.065	177.479
-19.3414	-21.065	197.502
-17.3414	-21.065	234.469
-15.3414	-21.065	194.978
-13.3414	-21.065	183.835
-11.3414	-21.065	187.777
-9.341423	-21.065	139.144
-7.341423	-21.065	193.986
-5.341423	-21.065	174.845
-3.341423	-21.065	175.455
-1.341423	-21.065	166.6
0.658577	-21.065	183.927
2.658577	-21.065	178.228
4.658577	-21.065	210.484
6.658577	-21.065	0.639823
8.658577	-21.065	0.639823
10.6586	-21.065	143.709
12.6586	-21.065	185.354
14.6586	-21.065	173.043
16.6586	-21.065	205.436
18.6586	-21.065	193.974
20.6586	-21.065	167.852
22.6586	-21.065	0.639823
24.6586	-21.065	5.443398
-38.3414	-20.065	191.759
-36.3414	-20.065	254.489
-34.3414	-20.065	190.122
-32.3414	-20.065	280.99
-30.3414	-20.065	294.584
-28.3414	-20.065	161.346
-26.3414	-20.065	184.473
-24.3414	-20.065	174.284
-22.3414	-20.065	190.428
-20.3414	-20.065	196.283
-18.3414	-20.065	163.115
-16.3414	-20.065	190.158
-14.3414	-20.065	180.162
-12.3414	-20.065	184.213
-10.3414	-20.065	176.098
-8.341423	-20.065	178.478
-6.341423	-20.065	177.748
-4.341423	-20.065	197.166
-2.341423	-20.065	189.375
-0.341423	-20.065	203.476
1.658577	-20.065	187.494
3.658577	-20.065	164.227
5.658577	-20.065	83.6223
7.658577	-20.065	310.871
9.658577	-20.065	179.113
11.6586	-20.065	147.411
13.6586	-20.065	151.859
15.6586	-20.065	170.644
17.6586	-20.065	170.65
19.6586	-20.065	189.984
21.6586	-20.065	189.149
23.6586	-20.065	0.639823
-39.3414	-19.065	200.773
-37.3414	-19.065	206.745
-35.3414	-19.065	178.046
-33.3414	-19.065	209.554
-31.3414	-19.065	189.565
-29.3414	-19.065	165.917
-27.3414	-19.065	167.409
-25.3414	-19.065	179.33
-23.3414	-19.065	180.882
-21.3414	-19.065	173.109
-19.3414	-19.065	191.603
-17.3414	-19.065	187.203
-15.3414	-19.065	189.081
-13.3414	-19.065	200.299
-11.3414	-19.065	195.409
-9.341423	-19.065	183.372
-7.341423	-19.065	171.401
-5.341423	-19.065	197.07
-3.341423	-19.065	202.376
-1.341423	-19.065	187.727
0.658577	-19.065	202.376
2.658577	-19.065	172.949
4.658577	-19.065	201.194
6.658577	-19.065	210.429
8.658577	-19.065	227.907
10.6586	-19.065	194.832
12.6586	-19.065	186.866
14.6586	-19.065	194.723
16.6586	-19.065	186.549
18.6586	-19.065	188.155
20.6586	-19.065	200.831
22.6586	-19.065	58.4714
24.6586	-19.065	69.9008
-38.3414	-18.065	180.414
-36.3414	-18.065	180.953
-34.3414	-18.065	103.604
-32.3414	-18.065	177.093
-30.3414	-18.065	173.907
-28.3414	-18.065	187.512
-26.3414	-18.065	172.657
-24.3414	-18.065	186.288
-22.3414	-18.065	183.189
-20.3414	-18.065	176.005
-18.3414	-18.065	171.866
-16.3414	-18.065	183.596
-14.3414	-18.065	199.776
-12.3414	-18.065	184.75
-10.3414	-18.065	186.838
-8.341423	-18.065	174.369
-6.341423	-18.065	176.527
-4.341423	-18.065	185.628
-2.341423	-18.065	181.721
-0.341423	-18.065	212.397
1.658577	-18.065	179.173
3.658577	-18.065	199.32
5.658577	-18.065	167.111
7.658577	-18.065	189.918
9.658577	-18.065	187.129
11.6586	-18.065	185.53
13.6586	-18.065	197.667
15.6586	-18.065	177.364
17.6586	-18.065	182.236
19.6586	-18.065	174.999
21.6586	-18.065	202.125
23.6586	-18.065	183.663
-39.3414	-17.065	197.146
-37.3414	-17.065	195.217
-35.3414	-17.065	163.13
-33.3414	-17.065	147.769
-31.3414	-17.065	176.593
-29.3414	-17.065	182.44
-27.3414	-17.065	176.766
-25.3414	-17.065	181.973
-23.3414	-17.065	187.212
-21.3414	-17.065	183.316
-19.3414	-17.065	160.079
-17.3414	-17.065	187.786
-15.3414	-17.065	190.917
-13.3414	-17.065	184.523
-11.3414	-17.065	198.458
-9.341423	-17.065	178.85
-7.341423	-17.065	197.622
-5.341423	-17.065	184.263
-3.341423	-17.065	163.577
-1.341423	-17.065	179.68
0.658577	-17.065	198.055
2.658577	-17.065	181.214
4.658577	-17.065	182.133
6.658577	-17.065	194.375
8.658577	-17.065	195.869
10.6586	-17.065	177.639
12.6586	-17.065	203.414
14.6586	-17.065	192.554
16.6586	-17.065	192.278
18.6586	-17.065	136.529
20.6586	-17.065	168.009
22.6586	-17.065	186.328
24.6586	-17.065	197.511
-38.3414	-16.065	191.477
-36.3414	-16.065	208.717
-34.3414	-16.065	212.995
-32.3414	-16.065	191.716
-30.3414	-16.065	192.066
-28.3414	-16.065	156.844
-26.3414	-16.065	167.068
-24.3414	-16.065	173.366
-22.3414	-16.065	182.109
-20.3414	-16.065	190.705
-18.3414	-16.065	251.359
-16.3414	-16.065	283.123
-14.3414	-16.065	189.939
-12.3414	-16.065	190.497
-10.3414	-16.065	166.219
-8.341423	-16.065	180.6
-6.341423	-16.065	171.958
-4.341423	-16.065	183.289
-2.341423	-16.065	196.233
-0.341423	-16.065	183.476
1.658577	-16.065	179.879
3.658577	-16.065	202.936
5.658577	-16.065	175.583
7.658577	-16.065	176.391
9.658577	-16.065	181.951
11.6586	-16.065	196.171
13.6586	-16.065	196.309
15.6586	-16.065	182.014
17.6586	-16.065	161.19
19.6586	-16.065	185.114
21.6586	-16.065	197.808
23.6586	-16.065	187.687
-39.3414	-15.065	172.733
-37.3414	-15.065	163.588
-35.3414	-15.065	279.818
-33.3414	-15.065	278.102
-31.3414	-15.065	196.366
-29.3414	-15.065	175.501
-27.3414	-15.065	188.677
-25.3414	-15.065	179.687
-23.3414	-15.065	172.505
-21.3414	-15.065	187.851
-19.3414	-15.065	182.934
-17.3414	-15.065	191.156
-15.3414	-15.065	191.922
-13.3414	-15.065	183.981
-11.3414	-15.065	166.599
-9.341423	-15.065	178.317
-7.341423	-15.065	170.381
-5.341423	-15.065	183.433
-3.341423	-15.065	187.022
-1.341423	-15.065	183.869
0.658577	-15.065	181.359
2.658577	-15.065	180.367
4.658577	-15.065	187.419
6.658577	-15.065	194.663
8.658577	-15.065	189.083
10.6586	-15.065	188.172
12.6586	-15.065	177.547
14.6586	-15.065	186.135
16.6586	-15.065	183.311
18.6586	-15.065	191.131
20.6586	-15.065	209.77
22.6586	-15.065	191.786
24.6586	-15.065	202.378
-38.3414	-14.065	200.218
-36.3414	-14.065	198.66
-34.3414	-14.065	200.014
-32.3414	-14.065	285.595
-30.3414	-14.065	198.797
-28.3414	-14.065	189.864
-26.3414	-14.065	194.719
-24.3414	-14.065	173.515
-22.3414	-14.065	183.66
-20.3414	-14.065	191.888
-18.3414	-14.065	209.075
-16.3414	-14.065	185.947
-14.3414	-14.065	189.505
-12.3414	-14.065	190.067
-10.3414	-14.065	179.517
-8.341423	-14.065	171.742
-6.341423	-14.065	177.295
-4.341423	-14.065	182.175
-2.341423	-14.065	173.234
-0.341423	-14.065	173.199
1.658577	-14.065	203.792
3.658577	-14.065	185.542
5.658577	-14.065	205.706
7.658577	-14.065	194.242
9.658577	-14.065	194.216
11.6586	-14.065	105.791
13.6586	-14.065	187.174
15.6586	-14.065	60.9815
17.6586	-14.065	105.715
19.6586	-14.065	209.916
21.6586	-14.065	169.963
23.6586	-14.065	184.893
-39.3414	-13.065	196.603
-37.3414	-13.065	188.053
-35.3414	-13.065	304.908
-33.3414	-13.065	283.598
-31.3414	-13.065	200.691
-29.3414	-13.065	189.253
-27.3414	-13.065	189.486
-25.3414	-13.065	174.183
-23.3414	-13.065	177.551
-21.3414	-13.065	184.473
-19.3414	-13.065	174.268
-17.3414	-13.065	143.235
-15.3414	-13.065	187.63
-13.3414	-13.065	177.145
-11.3414	-13.065	173.287
-9.341423	-13.065	179.027
-7.341423	-13.065	194.738
-5.341423	-13.065	182.863
-3.341423	-13.065	191.111
-1.341423	-13.065	202.441
0.658577	-13.065	191.489
2.658577	-13.065	196.275
4.658577	-13.065	226.627
6.658577	-13.065	184.744
8.658577	-13.065	191.022
10.6586	-13.065	139.433
12.6586	-13.065	124.961
14.6586	-13.065	181.644
16.6586	-13.065	185.022
18.6586	-13.065	181.706
20.6586	-13.065	176.79
22.6586	-13.065	187.732
24.6586	-13.065	185.156
-38.3414	-12.065	291.502
-36.3414	-12.065	273.005
-34.3414	-12.065	198.147
-32.3414	-12.065	180.57
-30.3414	-12.065	194.386
-28.3414	-12.065	187.712
-26.3414	-12.065	187.084
-24.3414	-12.065	164.372
-22.3414	-12.065	184.738
-20.3414	-12.065	176.712
-18.3414	-12.065	189.501
-16.3414	-12.065	162.607
-14.3414	-12.065	121.787
-12.3414	-12.065	180.352
-10.3414	-12.065	176.533
-8.341423	-12.065	183.167
-6.341423	-12.065	205.41
-4.341423	-12.065	192.776
-2.341423	-12.065	177.024
-0.341423	-12.065	195.05
1.658577	-12.065	178.582
3.658577	-12.065	219.632
5.658577	-12.065	193.893
7.658577	-12.065	190.526
9.658577	-12.065	213.209
11.6586	-12.065	37.5737
13.6586	-12.065	206.836
15.6586	-12.065	181.2
17.6586	-12.065	178.442
19.6586	-12.065	184.538
21.6586	-12.065	204.182
23.6586	-12.065	182.266
-39.3414	-11.065	281.757
-37.3414	-11.065	191.824
-35.3414	-11.065	216.939
-33.3414	-11.065	202.07
-31.3414	-11.065	190.728
-29.3414	-11.065	195.19
-27.3414	-11.065	194.976
-25.3414	-11.065	182.24
-23.3414	-11.065	170.592
-21.3414	-11.065	178.901
-19.3414	-11.065	179.953
-17.3414	-11.065	191.393
-15.3414	-11.065	182.079
-13.3414	-11.065	155.614
-11.3414	-11.065	173.676
-9.341423	-11.065	174.735
-7.341423	-11.065	187.79
-5.341423	-11.065	209.52
-3.341423	-11.065	197.769
-1.341423	-11.065	198.916
0.658577	-11.065	178.926
2.658577	-11.065	181.71
4.658577	-11.065	159.883
6.658577	-11.065	173.111
8.658577	-11.065	168.282
10.6586	-11.065	9.628057
12.6586	-11.065	187.17
14.6586	-11.065	174.048
16.6586	-11.065	175.668
18.6586	-11.065	190.362
20.6586	-11.065	170.479
22.6586	-11.065	183.936
24.6586	-11.065	184.328
-38.3414	-10.065	192.796
-36.3414	-10.065	204.288
-34.3414	-10.065	199.35
-32.3414	-10.065	283.517
-30.3414	-10.065	296.477
-28.3414	-10.065	299.444
-26.3414	-10.065	194.447
-24.3414	-10.065	185.457
-22.3414	-10.065	167.682
-20.3414	-10.065	185.843
-18.3414	-10.065	180.045
-16.3414	-10.065	188.969
-14.3414	-10.065	193.833
-12.3414	-10.065	194.404
-10.3414	-10.065	194.708
-8.341423	-10.065	163.669
-6.341423	-10.065	220.511
-4.341423	-10.065	199.172
-2.341423	-10.065	202.635
-0.341423	-10.065	195.324
1.658577	-10.065	188.759
3.658577	-10.065	157.962
5.658577	-10.065	174.255
7.658577	-10.065	175.787
9.658577	-10.065	1.464880
11.6586	-10.065	45.0948
13.6586	-10.065	199.325
15.6586	-10.065	183.843
17.6586	-10.065	173.114
19.6586	-10.065	143.709
21.6586	-10.065	157.563
23.6586	-10.065	181.261
-39.3414	-9.065000	285.569
-37.3414	-9.065000	197.17
-35.3414	-9.065000	195.37
-33.3414	-9.065000	297.925
-31.3414	-9.065000	189.4
-29.3414	-9.065000	206.477
-27.3414	-9.065000	195.44
-25.3414	-9.065000	179.857
-23.3414	-9.065000	127.75
-21.3414	-9.065000	117.818
-19.3414	-9.065000	177.88
-17.3414	-9.065000	193.348
-15.3414	-9.065000	216.625
-13.3414	-9.065000	196.933
-11.3414	-9.065000	201.456
-9.341423	-9.065000	218.606
-7.341423	-9.065000	170.092
-5.341423	-9.065000	119.736
-3.341423	-9.065000	204.052
-1.341423	-9.065000	194.295
0.658577	-9.065000	182.23
2.658577	-9.065000	143.074
4.658577	-9.065000	169.204
6.658577	-9.065000	179.826
8.658577	-9.065000	147.621
10.6586	-9.065000	0.639823
12.6586	-9.065000	186.344
14.6586	-9.065000	159.097
16.6586	-9.065000	177.308
18.6586	-9.065000	145.977
20.6586	-9.065000	108.914
22.6586	-9.065000	165.269
24.6586	-9.065000	199.509
-38.3414	-8.065000	197.596
-36.3414	-8.065000	286.31
-34.3414	-8.065000	195.8
-32.3414	-8.065000	292.908
-30.3414	-8.065000	193.998
-28.3414	-8.065000	196.376
-26.3414	-8.065000	203.41
-24.3414	-8.065000	180.469
-22.3414	-8.065000	166.335
-20.3414	-8.065000	133.307
-18.3414	-8.065000	195.587
-16.3414	-8.065000	194.736
-14.3414	-8.065000	181.313
-12.3414	-8.065000	189.209
-10.3414	-8.065000	307.788
-8.341423	-8.065000	256.361
-6.341423	-8.065000	103.553
-4.341423	-8.065000	130.845
-2.341423	-8.065000	183.98
-0.341423	-8.065000	197.14
1.658577	-8.065000	206.934
3.658577	-8.065000	194.77
5.658577	-8.065000	190.36
7.658577	-8.065000	181.656
9.658577	-8.065000	0.691043
11.6586	-8.065000	17.7639
13.6586	-8.065000	194.112
15.6586	-8.065000	208.422
17.6586	-8.065000	196.052
19.6586	-8.065000	166.469
21.6586	-8.065000	156.936
23.6586	-8.065000	191.185
-39.3414	-7.065000	198.15
-37.3414	-7.065000	212.086
-35.3414	-7.065000	202.984
-33.3414	-7.065000	200.305
-31.3414	-7.065000	192.117
-29.3414	-7.065000	183.744
-27.3414	-7.065000	185.142
-25.3414	-7.065000	198.681
-23.3414	-7.065000	192.883
-21.3414	-7.065000	150.075
-19.3414	-7.065000	171.206
-17.3414	-7.065000	198.346
-15.3414	-7.065000	196.514
-13.3414	-7.065000	187.349
-11.3414	-7.065000	183.865
-9.341423	-7.065000	192.427
-7.341423	-7.065000	147.134
-5.341423	-7.065000	16.0958
-3.341423	-7.065000	181.291
-1.341423	-7.065000	130.654
0.658577	-7.065000	83.9268
2.658577	-7.065000	179.632
4.658577	-7.065000	181.603
6.658577	-7.065000	185.602
8.658577	-7.065000	70.4694
10.6586	-7.065000	189.295
12.6586	-7.065000	182.715
14.6586	-7.065000	178.649
16.6586	-7.065000	188.334
18.6586	-7.065000	172.414
20.6586	-7.065000	184.609
22.6586	-7.065000	183.318
24.6586	-7.065000	166.683
-38.3414	-6.065000	192.811
-36.3414	-6.065000	199.589
-34.3414	-6.065000	201.948
-32.3414	-6.065000	206.748
-30.3414	-6.065000	196.31
-28.3414	-6.065000	194.303
-26.3414	-6.065000	185.74
-24.3414	-6.065000	279.41
-22.3414	-6.065000	181.03
-20.3414	-6.065000	178.392
-18.3414	-6.065000	50.1903
-16.3414	-6.065000	199.47
-14.3414	-6.065000	198.607
-12.3414	-6.065000	309.717
-10.3414	-6.065000	203.835
-8.341423	-6.065000	203.663
-6.341423	-6.065000	197.59
-4.341423	-6.065000	0.639823
-2.341423	-6.065000	175.035
-0.341423	-6.065000	5.987204
1.658577	-6.065000	177.151
3.658577	-6.065000	179.954
5.658577	-6.065000	169.708
7.658577	-6.065000	186.254
9.658577	-6.065000	155.407
11.6586	-6.065000	197.668
13.6586	-6.065000	179.694
15.6586	-6.065000	186.556
17.6586	-6.065000	160.696
19.6586	-6.065000	203.172
21.6586	-6.065000	176.24
23.6586	-6.065000	200.038
-39.3414	-5.065000	184.218
-37.3414	-5.065000	262.157
-35.3414	-5.065000	190.548
-33.3414	-5.065000	270.349
-31.3414	-5.065000	258.382
-29.3414	-5.065000	189.289
-27.3414	-5.065000	186.334
-25.3414	-5.065000	181.168
-23.3414	-5.065000	192.02
-21.3414	-5.065000	175.659
-19.3414	-5.065000	47.5648
-17.3414	-5.065000	254.052
-15.3414	-5.065000	190.749
-13.3414	-5.065000	193.95
-11.3414	-5.065000	303.774
-9.341423	-5.065000	200.919
-7.341423	-5.065000	197.407
-5.341423	-5.065000	199.754
-3.341423	-5.065000	0.639823
-1.341423	-5.065000	155.321
0.658577	-5.065000	172.407
2.658577	-5.065000	135.026
4.658577	-5.065000	188.956
6.658577	-5.065000	187.467
8.658577	-5.065000	245.172
10.6586	-5.065000	183.903
12.6586	-5.065000	187.651
14.6586	-5.065000	191.056
16.6586	-5.065000	183.535
18.6586	-5.065000	168.492
20.6586	-5.065000	177.188
22.6586	-5.065000	186.776
24.6586	-5.065000	175.629
-38.3414	-4.065000	172.081
-36.3414	-4.065000	179.189
-34.3414	-4.065000	294.4
-32.3414	-4.065000	256.77
-30.3414	-4.065000	187.618
-28.3414	-4.065000	185.683
-26.3414	-4.065000	182.707
-24.3414	-4.065000	191.375
-22.3414	-4.065000	187.571
-20.3414	-4.065000	176.655
-18.3414	-4.065000	167.583
-16.3414	-4.065000	202.003
-14.3414	-4.065000	194.404
-12.3414	-4.065000	189.292
-10.3414	-4.065000	222.108
-8.341423	-4.065000	301.392
-6.341423	-4.065000	190.826
-4.341423	-4.065000	105.12
-2.341423	-4.065000	303.362
-0.341423	-4.065000	188.049
1.658577	-4.065000	163.472
3.658577	-4.065000	109.71
5.658577	-4.065000	189.099
7.658577	-4.065000	186.562
9.658577	-4.065000	181.978
11.6586	-4.065000	190.776
13.6586	-4.065000	194.083
15.6586	-4.065000	188.515
17.6586	-4.065000	181.939
19.6586	-4.065000	184.104
21.6586	-4.065000	181.071
23.6586	-4.065000	187.146
-39.3414	-3.065000	0.639823
-37.3414	-3.065000	176.705
-35.3414	-3.065000	167.995
-33.3414	-3.065000	187.547
-31.3414	-3.065000	227.645
-29.3414	-3.065000	196.749
-27.3414	-3.065000	207.596
-25.3414	-3.065000	163.932
-23.3414	-3.065000	187.977
-21.3414	-3.065000	184.003
-19.3414	-3.065000	185.16
-17.3414	-3.065000	187.299
-15.3414	-3.065000	198.342
-13.3414	-3.065000	197.745
-11.3414	-3.065000	198.916
-9.341423	-3.065000	201.098
-7.341423	-3.065000	215.22
-5.341423	-3.065000	198.955
-3.341423	-3.065000	248.602
-1.341423	-3.065000	268.153
0.658577	-3.065000	190.197
2.658577	-3.065000	120.972
4.658577	-3.065000	178.285
6.658577	-3.065000	183.188
8.658577	-3.065000	192.486
10.6586	-3.065000	177.609
12.6586	-3.065000	282.552
14.6586	-3.065000	192.562
16.6586	-3.065000	177.11
18.6586	-3.065000	168.801
20.6586	-3.065000	173.706
22.6586	-3.065000	150.749
24.6586	-3.065000	184.632
-38.3414	-2.065000	180.824
-36.3414	-2.065000	185.649
-34.3414	-2.065000	193.563
-32.3414	-2.065000	163.442
-30.3414	-2.065000	184.946
-28.3414	-2.065000	99.9455
-26.3414	-2.065000	194.665
-24.3414	-2.065000	195.797
-22.3414	-2.065000	179.732
-20.3414	-2.065000	193.247
-18.3414	-2.065000	127.627
-16.3414	-2.065000	179.328
-14.3414	-2.065000	191.939
-12.3414	-2.065000	205.083
-10.3414	-2.065000	201.885
-8.341423	-2.065000	188.518
-6.341423	-2.065000	200.321
-4.341423	-2.065000	192.179
-2.341423	-2.065000	185.86
-0.341423	-2.065000	271.628
1.658577	-2.065000	189.781
3.658577	-2.065000	177.602
5.658577	-2.065000	178.892
7.658577	-2.065000	188.41
9.658577	-2.065000	178.581
11.6586	-2.065000	174.82
13.6586	-2.065000	271.165
15.6586	-2.065000	185.858
17.6586	-2.065000	184.91
19.6586	-2.065000	176.636
21.6586	-2.065000	186.262
23.6586	-2.065000	170.005
-39.3414	-1.065000	80.8977
-37.3414	-1.065000	178.153
-35.3414	-1.065000	176.486
-33.3414	-1.065000	181.849
-31.3414	-1.065000	179.858
-29.3414	-1.065000	114.614
-27.3414	-1.065000	125.957
-25.3414	-1.065000	184.98
-23.3414	-1.065000	207.352
-21.3414	-1.065000	183.357
-19.3414	-1.065000	205.454
-17.3414	-1.065000	168.419
-15.3414	-1.065000	188.444
-13.3414	-1.065000	210.576
-11.3414	-1.065000	192.433
-9.341423	-1.065000	199.34
-7.341423	-1.065000	201.364
-5.341423	-1.065000	200.466
-3.341423	-1.065000	185.656
-1.341423	-1.065000	289.065
0.658577	-1.065000	185.119
2.658577	-1.065000	171.373
4.658577	-1.065000	211.963
6.658577	-1.065000	176.58
8.658577	-1.065000	192.534
10.6586	-1.065000	183.374
12.6586	-1.065000	188.95
14.6586	-1.065000	190.28
16.6586	-1.065000	176.232
18.6586	-1.065000	196.293
20.6586	-1.065000	183.314
22.6586	-1.065000	169.743
24.6586	-1.065000	146.893
-38.3414	-0.065000	194.689
-36.3414	-0.065000	183.979
-34.3414	-0.065000	182.528
-32.3414	-0.065000	143.746
-30.3414	-0.065000	117.413
-28.3414	-0.065000	0.639823
-26.3414	-0.065000	203.454
-24.3414	-0.065000	181.097
-22.3414	-0.065000	196.89
-20.3414	-0.065000	181.11
-18.3414	-0.065000	184.246
-16.3414	-0.065000	184.626
-14.3414	-0.065000	188.749
-12.3414	-0.065000	206.358
-10.3414	-0.065000	188.874
-8.341423	-0.065000	185.454
-6.341423	-0.065000	199.017
-4.341423	-0.065000	196.284
-2.341423	-0.065000	181.469
-0.341423	-0.065000	271.615
1.658577	-0.065000	175.827
3.658577	-0.065000	187.849
5.658577	-0.065000	187.655
7.658577	-0.065000	196.674
9.658577	-0.065000	185.675
11.6586	-0.065000	189.532
13.6586	-0.065000	285.344
15.6586	-0.065000	183.12
17.6586	-0.065000	182.684
19.6586	-0.065000	201.022
21.6586	-0.065000	180.208
23.6586	-0.065000	143.664
-39.3414	0.935000	159.06
-37.3414	0.935000	272.2
-35.3414	0.935000	159.851
-33.3414	0.935000	202.085
-31.3414	0.935000	165.341
-29.3414	0.935000	136.682
-27.3414	0.935000	213.347
-25.3414	0.935000	278.652
-23.3414	0.935000	196.706
-21.3414	0.935000	198.173
-19.3414	0.935000	189.681
-17.3414	0.935000	180.728
-15.3414	0.935000	205.527
-13.3414	0.935000	202.586
-11.3414	0.935000	302.501
-9.341423	0.935000	187.658
-7.341423	0.935000	196.323
-5.341423	0.935000	299.983
-3.341423	0.935000	192.032
-1.341423	0.935000	184.999
0.658577	0.935000	181.507
2.658577	0.935000	168.491
4.658577	0.935000	198.97
6.658577	0.935000	288.44
8.658577	0.935000	187.014
10.6586	0.935000	180.854
12.6586	0.935000	192.472
14.6586	0.935000	193.015
16.6586	0.935000	186.329
18.6586	0.935000	184.944
20.6586	0.935000	177.872
22.6586	0.935000	183.474
24.6586	0.935000	211.848
-38.3414	1.935000	208.593
-36.3414	1.935000	215.176
-34.3414	1.935000	191.784
-32.3414	1.935000	194.188
-30.3414	1.935000	182.425
-28.3414	1.935000	133.459
-26.3414	1.935000	189.791
-24.3414	1.935000	198.03
-22.3414	1.935000	187.69
-20.3414	1.935000	183.756
-18.3414	1.935000	189.616
-16.3414	1.935000	276.069
-14.3414	1.935000	190.912
-12.3414	1.935000	294.41
-10.3414	1.935000	198.687
-8.341423	1.935000	211.763
-6.341423	1.935000	199.338
-4.341423	1.935000	295.766
-2.341423	1.935000	185.483
-0.341423	1.935000	178.221
1.658577	1.935000	151.971
3.658577	1.935000	196.462
5.658577	1.935000	192.124
7.658577	1.935000	190.489
9.658577	1.935000	302.814
11.6586	1.935000	193.07
13.6586	1.935000	279.455
15.6586	1.935000	200.773
17.6586	1.935000	189.896
19.6586	1.935000	177.841
21.6586	1.935000	181.115
23.6586	1.935000	189.009
-39.3414	2.935000	131.786
-37.3414	2.935000	193.164
-35.3414	2.935000	173.491
-33.3414	2.935000	191.947
-31.3414	2.935000	163.149
-29.3414	2.935000	188.884
-27.3414	2.935000	183.384
-25.3414	2.935000	196.619
-23.3414	2.935000	201.813
-21.3414	2.935000	192.064
-19.3414	2.935000	171.155
-17.3414	2.935000	87.9872
-15.3414	2.935000	63.0654
-13.3414	2.935000	191.932
-11.3414	2.935000	195.327
-9.341423	2.935000	196.682
-7.341423	2.935000	183.219
-5.341423	2.935000	287.122
-3.341423	2.935000	189.264
-1.341423	2.935000	194.7
0.658577	2.935000	194.308
2.658577	2.935000	180.019
4.658577	2.935000	197.323
6.658577	2.935000	181.522
8.658577	2.935000	185.219
10.6586	2.935000	278.117
12.6586	2.935000	185.151
14.6586	2.935000	189.937
16.6586	2.935000	187.433
18.6586	2.935000	164.724
20.6586	2.935000	161.73
22.6586	2.935000	179.446
24.6586	2.935000	173.925
-38.3414	3.935000	175.41
-36.3414	3.935000	199.37
-34.3414	3.935000	183.993
-32.3414	3.935000	181.151
-30.3414	3.935000	185.398
-28.3414	3.935000	198.238
-26.3414	3.935000	179.246
-24.3414	3.935000	196.336
-22.3414	3.935000	188.505
-20.3414	3.935000	187.74
-18.3414	3.935000	194.274
-16.3414	3.935000	176.288
-14.3414	3.935000	191.53
-12.3414	3.935000	191.308
-10.3414	3.935000	184.651
-8.341423	3.935000	184.875
-6.341423	3.935000	188.204
-4.341423	3.935000	196.749
-2.341423	3.935000	178.569
-0.341423	3.935000	274.74
1.658577	3.935000	177.818
3.658577	3.935000	200.807
5.658577	3.935000	176.485
7.658577	3.935000	200.928
9.658577	3.935000	184.567
11.6586	3.935000	184.16
13.6586	3.935000	187.74
15.6586	3.935000	195.666
17.6586	3.935000	193.425
19.6586	3.935000	262.631
21.6586	3.935000	193.283
23.6586	3.935000	188.667
-39.3414	4.935000	313.625
-37.3414	4.935000	292.211
-35.3414	4.935000	196.833
-33.3414	4.935000	175.05
-31.3414	4.935000	187.311
-29.3414	4.935000	190.418
-27.3414	4.935000	182.398
-25.3414	4.935000	191.838
-23.3414	4.935000	199.787
-21.3414	4.935000	184.231
-19.3414	4.935000	182.503
-17.3414	4.935000	193.741
-15.3414	4.935000	193.053
-13.3414	4.935000	95.3033
-11.3414	4.935000	188.124
-9.341423	4.935000	187.617
-7.341423	4.935000	183.063
-5.341423	4.935000	162.682
-3.341423	4.935000	267.757
-1.341423	4.935000	187.398
0.658577	4.935000	277.113
2.658577	4.935000	189.925
4.658577	4.935000	191.741
6.658577	4.935000	297.855
8.658577	4.935000	185.938
10.6586	4.935000	188.073
12.6586	4.935000	194.181
14.6586	4.935000	190.723
16.6586	4.935000	175.491
18.6586	4.935000	271.673
20.6586	4.935000	188.895
22.6586	4.935000	288.378
24.6586	4.935000	188.074
-38.3414	5.935000	189.469
-36.3414	5.935000	199.461
-34.3414	5.935000	184.017
-32.3414	5.935000	188.763
-30.3414	5.935000	197.869
-28.3414	5.935000	171.13
-26.3414	5.935000	190.875
-24.3414	5.935000	192.71
-22.3414	5.935000	205.848
-20.3414	5.935000	204.375
-18.3414	5.935000	184.517
-16.3414	5.935000	189.456
-14.3414	5.935000	196.122
-12.3414	5.935000	213.668
-10.3414	5.935000	196.297
-8.341423	5.935000	189.396
-6.341423	5.935000	185.927
-4.341423	5.935000	139.074
-2.341423	5.935000	179.158
-0.341423	5.935000	196.558
1.658577	5.935000	275.455
3.658577	5.935000	204.393
5.658577	5.935000	181.46
7.658577	5.935000	176.134
9.658577	5.935000	193.649
11.6586	5.935000	192.923
13.6586	5.935000	193.626
15.6586	5.935000	269.546
17.6586	5.935000	181.958
19.6586	5.935000	182.96
21.6586	5.935000	193.377
23.6586	5.935000	191.409
-39.3414	6.935000	204.291
-37.3414	6.935000	183.393
-35.3414	6.935000	189.699
-33.3414	6.935000	180.666
-31.3414	6.935000	184.169
-29.3414	6.935000	172.81
-27.3414	6.935000	167.956
-25.3414	6.935000	191.458
-23.3414	6.935000	172.775
-21.3414	6.935000	181.904
-19.3414	6.935000	275.693
-17.3414	6.935000	193.152
-15.3414	6.935000	197.386
-13.3414	6.935000	205.034
-11.3414	6.935000	171.174
-9.341423	6.935000	164.544
-7.341423	6.935000	182.271
-5.341423	6.935000	186.601
-3.341423	6.935000	186.28
-1.341423	6.935000	269.121
0.658577	6.935000	267.228
2.658577	6.935000	190.04
4.658577	6.935000	195.076
6.658577	6.935000	186.344
8.658577	6.935000	196.436
10.6586	6.935000	287.106
12.6586	6.935000	191.135
14.6586	6.935000	190.195
16.6586	6.935000	200.757
18.6586	6.935000	187.432
20.6586	6.935000	179.975
22.6586	6.935000	198.518
24.6586	6.935000	192.921
-38.3414	7.935000	192.638
-36.3414	7.935000	204.977
-34.3414	7.935000	193.102
-32.3414	7.935000	189.458
-30.3414	7.935000	187.74
-28.3414	7.935000	202.672
-26.3414	7.935000	184.003
-24.3414	7.935000	186.412
-22.3414	7.935000	184.562
-20.3414	7.935000	190.201
-18.3414	7.935000	180.399
-16.3414	7.935000	189.246
-14.3414	7.935000	191.483
-12.3414	7.935000	190.328
-10.3414	7.935000	144.628
-8.341423	7.935000	151.471
-6.341423	7.935000	184.876
-4.341423	7.935000	190.168
-2.341423	7.935000	281.142
-0.341423	7.935000	180.805
1.658577	7.935000	186.328
3.658577	7.935000	174.192
5.658577	7.935000	216.018
7.658577	7.935000	202.043
9.658577	7.935000	184.578
11.6586	7.935000	191.877
13.6586	7.935000	184.485
15.6586	7.935000	179.594
17.6586	7.935000	178.309
19.6586	7.935000	134.552
21.6586	7.935000	265.934
23.6586	7.935000	186.403
-39.3414	8.935000	286.301
-37.3414	8.935000	211.413
-35.3414	8.935000	197.696
-33.3414	8.935000	196.073
-31.3414	8.935000	186.53
-29.3414	8.935000	194.786
-27.3414	8.935000	194.499
-25.3414	8.935000	187.273
-23.3414	8.935000	189.936
-21.3414	8.935000	184.084
-19.3414	8.935000	192.841
-17.3414	8.935000	197.342
-15.3414	8.935000	305.581
-13.3414	8.935000	191.097
-11.3414	8.935000	185.29
-9.341423	8.935000	142.45
-7.341423	8.935000	158.126
-5.341423	8.935000	172.991
-3.341423	8.935000	183.439
-1.341423	8.935000	267.9
0.658577	8.935000	287.237
2.658577	8.935000	179.228
4.658577	8.935000	181.482
6.658577	8.935000	204.149
8.658577	8.935000	190.562
10.6586	8.935000	180.458
12.6586	8.935000	189.914
14.6586	8.935000	192.174
16.6586	8.935000	221.714
18.6586	8.935000	117.558
20.6586	8.935000	180.729
22.6586	8.935000	164.705
24.6586	8.935000	172.065
-38.3414	9.935000	195.868
-36.3414	9.935000	204.805
-34.3414	9.935000	296.425
-32.3414	9.935000	296.276
-30.3414	9.935000	206.554
-28.3414	9.935000	189.908
-26.3414	9.935000	197.546
-24.3414	9.935000	160.062
-22.3414	9.935000	178.2
-20.3414	9.935000	183.407
-18.3414	9.935000	181.019
-16.3414	9.935000	284.133
-14.3414	9.935000	200.719
-12.3414	9.935000	188.597
-10.3414	9.935000	143.658
-8.341423	9.935000	135.817
-6.341423	9.935000	192.935
-4.341423	9.935000	183.013
-2.341423	9.935000	176.73
-0.341423	9.935000	184.289
1.658577	9.935000	195.247
3.658577	9.935000	175.74
5.658577	9.935000	183.459
7.658577	9.935000	192.404
9.658577	9.935000	193.67
11.6586	9.935000	173.865
13.6586	9.935000	100.603
15.6586	9.935000	56.7893
17.6586	9.935000	75.4649
19.6586	9.935000	195.461
21.6586	9.935000	184.712
23.6586	9.935000	177.588
-39.3414	10.935	201.169
-37.3414	10.935	191.85
-35.3414	10.935	195.78
-33.3414	10.935	210.837
-31.3414	10.935	196.438
-29.3414	10.935	292.212
-27.3414	10.935	179.408
-25.3414	10.935	177.759
-23.3414	10.935	192.708
-21.3414	10.935	173.217
-19.3414	10.935	186.916
-17.3414	10.935	208.466
-15.3414	10.935	199.276
-13.3414	10.935	181.554
-11.3414	10.935	189.092
-9.341423	10.935	157.606
-7.341423	10.935	166.627
-5.341423	10.935	274.968
-3.341423	10.935	183.711
-1.341423	10.935	197.137
0.658577	10.935	186.895
2.658577	10.935	187.53
4.658577	10.935	180.485
6.658577	10.935	188.934
8.658577	10.935	187.746
10.6586	10.935	208.466
12.6586	10.935	192.876
14.6586	10.935	0.639823
16.6586	10.935	2.822755
18.6586	10.935	781.698
20.6586	10.935	187.456
22.6586	10.935	183.021
24.6586	10.935	172.141
-38.3414	11.935	202.216
-36.3414	11.935	203.087
-34.3414	11.935	199.156
-32.3414	11.935	197.812
-30.3414	11.935	190.614
-28.3414	11.935	190.482
-26.3414	11.935	183.116
-24.3414	11.935	149.585
-22.3414	11.935	179.037
-20.3414	11.935	188.729
-18.3414	11.935	179.772
-16.3414	11.935	177.449
-14.3414	11.935	187.78
-12.3414	11.935	197.229
-10.3414	11.935	167.134
-8.341423	11.935	154.266
-6.341423	11.935	176.124
-4.341423	11.935	189.32
-2.341423	11.935	195.413
-0.341423	11.935	192.847
1.658577	11.935	203.128
3.658577	11.935	161.602
5.658577	11.935	181.566
7.658577	11.935	262.326
9.658577	11.935	186.814
11.6586	11.935	190.885
13.6586	11.935	157.958
15.6586	11.935	32.4671
17.6586	11.935	0.639823
19.6586	11.935	1587.08
21.6586	11.935	174.731
23.6586	11.935	181.978
-39.3414	12.935	201.745
-37.3414	12.935	184.667
-35.3414	12.935	202.261
-33.3414	12.935	195.426
-31.3414	12.935	193.185
-29.3414	12.935	194.032
-27.3414	12.935	172.021
-25.3414	12.935	179.233
-23.3414	12.935	181.012
-21.3414	12.935	179.202
-19.3414	12.935	184.326
-17.3414	12.935	185.849
-15.3414	12.935	191.118
-13.3414	12.935	180.554
-11.3414	12.935	182.309
-9.341423	12.935	193.97
-7.341423	12.935	181.018
-5.341423	12.935	190.783
-3.341423	12.935	190.309
-1.341423	12.935	181.294
0.658577	12.935	188.081
2.658577	12.935	208.454
4.658577	12.935	143.036
6.658577	12.935	190.839
8.658577	12.935	182.061
10.6586	12.935	197.275
12.6586	12.935	175.666
14.6586	12.935	37.1353
16.6586	12.935	0.639823
18.6586	12.935	212.86
20.6586	12.935	0.835806
22.6586	12.935	202.533
24.6586	12.935	177.891
-38.3414	13.935	197.291
-36.3414	13.935	200.224
-34.3414	13.935	291.84
-32.3414	13.935	199.999
-30.3414	13.935	282.217
-28.3414	13.935	171.498
-26.3414	13.935	171.387
-24.3414	13.935	164.386
-22.3414	13.935	188.604
-20.3414	13.935	291.283
-18.3414	13.935	191.041
-16.3414	13.935	188.268
-14.3414	13.935	191.923
-12.3414	13.935	187.417
-10.3414	13.935	183.366
-8.341423	13.935	188.271
-6.341423	13.935	195.374
-4.341423	13.935	195.18
-2.341423	13.935	191.542
-0.341423	13.935	195.128
1.658577	13.935	213.104
3.658577	13.935	165.608
5.658577	13.935	54.3807
7.658577	13.935	181.194
9.658577	13.935	195.918
11.6586	13.935	181.16
13.6586	13.935	161.048
15.6586	13.935	2.026119
17.6586	13.935	15.8251
19.6586	13.935	1.431273
21.6586	13.935	0.888643
23.6586	13.935	0.639823
-39.3414	14.935	292.373
-37.3414	14.935	201.789
-35.3414	14.935	291.885
-33.3414	14.935	196.43
-31.3414	14.935	201.065
-29.3414	14.935	168.617
-27.3414	14.935	163.269
-25.3414	14.935	156.893
-23.3414	14.935	178.009
-21.3414	14.935	187.014
-19.3414	14.935	193.87
-17.3414	14.935	177.799
-15.3414	14.935	175.818
-13.3414	14.935	189.545
-11.3414	14.935	197.991
-9.341423	14.935	167.608
-7.341423	14.935	188.061
-5.341423	14.935	183.291
-3.341423	14.935	195.488
-1.341423	14.935	186.217
0.658577	14.935	178.171
2.658577	14.935	195.926
4.658577	14.935	17.5392
6.658577	14.935	36.23
8.658577	14.935	178.773
10.6586	14.935	189.093
12.6586	14.935	187.227
14.6586	14.935	39.7613
16.6586	14.935	11.4635
18.6586	14.935	2.381943
20.6586	14.935	0.639823
22.6586	14.935	0.639823
24.6586	14.935	58.8345
-38.3414	15.935	193.918
-36.3414	15.935	207.132
-34.3414	15.935	201.999
-32.3414	15.935	198.913
-30.3414	15.935	198.638
-28.3414	15.935	166.829
-26.3414	15.935	172.282
-24.3414	15.935	183.689
-22.3414	15.935	195.859
-20.3414	15.935	182.184
-18.3414	15.935	185.469
-16.3414	15.935	189.221
-14.3414	15.935	272.074
-12.3414	15.935	255.203
-10.3414	15.935	131.041
-8.341423	15.935	232.784
-6.341423	15.935	181.791
-4.341423	15.935	135.993
-2.341423	15.935	179.95
-0.341423	15.935	182.569
1.658577	15.935	195.475
3.658577	15.935	192.204
5.658577	15.935	8.873048
7.658577	15.935	97.6912
9.658577	15.935	181.365
11.6586	15.935	157.081
13.6586	15.935	205.406
15.6586	15.935	0.639823
17.6586	15.935	231.436
19.6586	15.935	0.639823
21.6586	15.935	128.215
23.6586	15.935	2595.12
24.6586	15.935	20.0106