File: data/derived_data/raman/20170920_Gr-NH2_for_Radisurf/20170920 Gr-NH for Radisurf map 2/Dp FWHM.txt
#XList		#YList		#IList
-39.3414	-21.065	10.8672
-37.3414	-21.065	16.7497
-35.3414	-21.065	10.3848
-33.3414	-21.065	21.8802
-31.3414	-21.065	41.3672
-29.3414	-21.065	43.6326
-27.3414	-21.065	42.2362
-25.3414	-21.065	19.7543
-23.3414	-21.065	5.719835
-21.3414	-21.065	23.9123
-19.3414	-21.065	1.648506
-17.3414	-21.065	39.8368
-15.3414	-21.065	36.5731
-13.3414	-21.065	40.652
-11.3414	-21.065	36.0389
-9.341423	-21.065	1314.25
-7.341423	-21.065	16.089
-5.341423	-21.065	17.9019
-3.341423	-21.065	0.639823
-1.341423	-21.065	15.8337
0.658577	-21.065	17.7498
2.658577	-21.065	15.0901
4.658577	-21.065	23.5737
6.658577	-21.065	4.247962
8.658577	-21.065	1.632350
10.6586	-21.065	15.5946
12.6586	-21.065	17.0104
14.6586	-21.065	19.6452
16.6586	-21.065	17.7721
18.6586	-21.065	18.6879
20.6586	-21.065	19.5257
22.6586	-21.065	313.2
24.6586	-21.065	1.164052
-38.3414	-20.065	13.5271
-36.3414	-20.065	21.1088
-34.3414	-20.065	18.0714
-32.3414	-20.065	21.5192
-30.3414	-20.065	28.4143
-28.3414	-20.065	15.6455
-26.3414	-20.065	16.4174
-24.3414	-20.065	13.7247
-22.3414	-20.065	31.5912
-20.3414	-20.065	18.2108
-18.3414	-20.065	16.8647
-16.3414	-20.065	38.4525
-14.3414	-20.065	39.7848
-12.3414	-20.065	37.4106
-10.3414	-20.065	10.4271
-8.341423	-20.065	14.4723
-6.341423	-20.065	14.9353
-4.341423	-20.065	29.293
-2.341423	-20.065	25.0112
-0.341423	-20.065	17.8467
1.658577	-20.065	20.157
3.658577	-20.065	19.6
5.658577	-20.065	29.2634
7.658577	-20.065	0.993579
9.658577	-20.065	17.4715
11.6586	-20.065	19.0084
13.6586	-20.065	15.6178
15.6586	-20.065	17.8289
17.6586	-20.065	21.2451
19.6586	-20.065	37.6041
21.6586	-20.065	26.1546
23.6586	-20.065	0.639823
-39.3414	-19.065	18.5544
-37.3414	-19.065	11.9993
-35.3414	-19.065	16.3436
-33.3414	-19.065	12.8947
-31.3414	-19.065	38.4317
-29.3414	-19.065	17.4182
-27.3414	-19.065	15.4053
-25.3414	-19.065	21.5203
-23.3414	-19.065	20.4329
-21.3414	-19.065	13.1619
-19.3414	-19.065	24.2764
-17.3414	-19.065	36.6762
-15.3414	-19.065	37.3456
-13.3414	-19.065	38.3041
-11.3414	-19.065	31.6188
-9.341423	-19.065	14.9442
-7.341423	-19.065	14.9372
-5.341423	-19.065	17.5703
-3.341423	-19.065	195.064
-1.341423	-19.065	16.0131
0.658577	-19.065	17.3386
2.658577	-19.065	16.5106
4.658577	-19.065	21.9472
6.658577	-19.065	9.848091
8.658577	-19.065	35.3178
10.6586	-19.065	83.9702
12.6586	-19.065	28.2658
14.6586	-19.065	24.3995
16.6586	-19.065	21.4693
18.6586	-19.065	12.8618
20.6586	-19.065	30.3126
22.6586	-19.065	1.450271
24.6586	-19.065	48.5764
-38.3414	-18.065	19.1352
-36.3414	-18.065	16.6186
-34.3414	-18.065	19.0941
-32.3414	-18.065	27.5417
-30.3414	-18.065	38.5586
-28.3414	-18.065	28.457
-26.3414	-18.065	42.0237
-24.3414	-18.065	17.678
-22.3414	-18.065	16.608
-20.3414	-18.065	17.93
-18.3414	-18.065	29.0918
-16.3414	-18.065	39.4746
-14.3414	-18.065	37.4143
-12.3414	-18.065	40.1072
-10.3414	-18.065	17.2731
-8.341423	-18.065	15.6793
-6.341423	-18.065	17.141
-4.341423	-18.065	21.9168
-2.341423	-18.065	14.9345
-0.341423	-18.065	15.5022
1.658577	-18.065	18.2373
3.658577	-18.065	20.0103
5.658577	-18.065	17.8567
7.658577	-18.065	38.8261
9.658577	-18.065	40.9289
11.6586	-18.065	37.376
13.6586	-18.065	32.1695
15.6586	-18.065	19.6006
17.6586	-18.065	16.9179
19.6586	-18.065	18.8707
21.6586	-18.065	36.2626
23.6586	-18.065	24.2292
-39.3414	-17.065	66.5704
-37.3414	-17.065	36.1822
-35.3414	-17.065	18.0462
-33.3414	-17.065	12.0639
-31.3414	-17.065	14.7308
-29.3414	-17.065	43.1009
-27.3414	-17.065	19.1865
-25.3414	-17.065	24.0677
-23.3414	-17.065	18.6474
-21.3414	-17.065	27.3457
-19.3414	-17.065	39.9974
-17.3414	-17.065	39.0753
-15.3414	-17.065	36.0314
-13.3414	-17.065	38.8755
-11.3414	-17.065	26.062
-9.341423	-17.065	16.2734
-7.341423	-17.065	31.0115
-5.341423	-17.065	32.6339
-3.341423	-17.065	13.3749
-1.341423	-17.065	32.4127
0.658577	-17.065	19.68
2.658577	-17.065	19.3507
4.658577	-17.065	19.8788
6.658577	-17.065	20.743
8.658577	-17.065	38.0292
10.6586	-17.065	41.9436
12.6586	-17.065	38.6573
14.6586	-17.065	17.3834
16.6586	-17.065	30.9032
18.6586	-17.065	71.751
20.6586	-17.065	31.8771
22.6586	-17.065	37.0261
24.6586	-17.065	31.7282
-38.3414	-16.065	37.2873
-36.3414	-16.065	38.6375
-34.3414	-16.065	37.2437
-32.3414	-16.065	36.1909
-30.3414	-16.065	40.8536
-28.3414	-16.065	18.7461
-26.3414	-16.065	42.2419
-24.3414	-16.065	22.991
-22.3414	-16.065	18.7895
-20.3414	-16.065	27.6133
-18.3414	-16.065	10.9238
-16.3414	-16.065	32.5811
-14.3414	-16.065	36.1509
-12.3414	-16.065	33.7469
-10.3414	-16.065	19.1082
-8.341423	-16.065	15.5859
-6.341423	-16.065	19.7632
-4.341423	-16.065	19.9839
-2.341423	-16.065	18.0063
-0.341423	-16.065	26.2297
1.658577	-16.065	20.1333
3.658577	-16.065	26.0968
5.658577	-16.065	13.9429
7.658577	-16.065	41.6966
9.658577	-16.065	17.768
11.6586	-16.065	38.0938
13.6586	-16.065	20.2135
15.6586	-16.065	31.8327
17.6586	-16.065	24.7453
19.6586	-16.065	20.2161
21.6586	-16.065	16.8151
23.6586	-16.065	20.1565
-39.3414	-15.065	18.3486
-37.3414	-15.065	34.2329
-35.3414	-15.065	34.7695
-33.3414	-15.065	34.6306
-31.3414	-15.065	36.5178
-29.3414	-15.065	24.5744
-27.3414	-15.065	41.3311
-25.3414	-15.065	20.2933
-23.3414	-15.065	17.6518
-21.3414	-15.065	20.7924
-19.3414	-15.065	8.132029
-17.3414	-15.065	37.9894
-15.3414	-15.065	39.6601
-13.3414	-15.065	40.4749
-11.3414	-15.065	21.6784
-9.341423	-15.065	13.3261
-7.341423	-15.065	11.2303
-5.341423	-15.065	17.6078
-3.341423	-15.065	14.4435
-1.341423	-15.065	16.6842
0.658577	-15.065	21.5081
2.658577	-15.065	17.5526
4.658577	-15.065	18.5206
6.658577	-15.065	38.8408
8.658577	-15.065	41.2419
10.6586	-15.065	42.0219
12.6586	-15.065	29.4972
14.6586	-15.065	21.7881
16.6586	-15.065	22.7545
18.6586	-15.065	18.7637
20.6586	-15.065	21.2265
22.6586	-15.065	24.6794
24.6586	-15.065	35.6669
-38.3414	-14.065	38.5887
-36.3414	-14.065	36.0048
-34.3414	-14.065	35.762
-32.3414	-14.065	35.6817
-30.3414	-14.065	38.2461
-28.3414	-14.065	20.3473
-26.3414	-14.065	30.8006
-24.3414	-14.065	17.9119
-22.3414	-14.065	17.7939
-20.3414	-14.065	28.3899
-18.3414	-14.065	35.2604
-16.3414	-14.065	41.3659
-14.3414	-14.065	38.5229
-12.3414	-14.065	35.0821
-10.3414	-14.065	12.6749
-8.341423	-14.065	14.03
-6.341423	-14.065	11.9942
-4.341423	-14.065	16.1263
-2.341423	-14.065	9.618251
-0.341423	-14.065	15.7003
1.658577	-14.065	19.0275
3.658577	-14.065	23.5074
5.658577	-14.065	18.0301
7.658577	-14.065	40.4246
9.658577	-14.065	39.4681
11.6586	-14.065	23.0388
13.6586	-14.065	28.9233
15.6586	-14.065	7.098837
17.6586	-14.065	9.816646
19.6586	-14.065	18.0283
21.6586	-14.065	17.9808
23.6586	-14.065	15.1585
-39.3414	-13.065	37.882
-37.3414	-13.065	35.0861
-35.3414	-13.065	34.92
-33.3414	-13.065	34.1293
-31.3414	-13.065	36.2925
-29.3414	-13.065	39.8585
-27.3414	-13.065	34.8197
-25.3414	-13.065	20.354
-23.3414	-13.065	16.3089
-21.3414	-13.065	23.0796
-19.3414	-13.065	16.0265
-17.3414	-13.065	30.1413
-15.3414	-13.065	22.1136
-13.3414	-13.065	42.5863
-11.3414	-13.065	11.5592
-9.341423	-13.065	14.3488
-7.341423	-13.065	14.8601
-5.341423	-13.065	12.6147
-3.341423	-13.065	12.5288
-1.341423	-13.065	22.7344
0.658577	-13.065	18.5513
2.658577	-13.065	16.696
4.658577	-13.065	18.1043
6.658577	-13.065	22.6875
8.658577	-13.065	37.0031
10.6586	-13.065	21.6177
12.6586	-13.065	20.4383
14.6586	-13.065	21.2586
16.6586	-13.065	33.7489
18.6586	-13.065	15.2295
20.6586	-13.065	19.7069
22.6586	-13.065	17.7915
24.6586	-13.065	21.144
-38.3414	-12.065	33.988
-36.3414	-12.065	35.0589
-34.3414	-12.065	34.0585
-32.3414	-12.065	35.4329
-30.3414	-12.065	36.3001
-28.3414	-12.065	38.2361
-26.3414	-12.065	42.8115
-24.3414	-12.065	42.5757
-22.3414	-12.065	43.8455
-20.3414	-12.065	22.5534
-18.3414	-12.065	20.8251
-16.3414	-12.065	11.0611
-14.3414	-12.065	4.748032
-12.3414	-12.065	15.5459
-10.3414	-12.065	7.440419
-8.341423	-12.065	14.6541
-6.341423	-12.065	16.5929
-4.341423	-12.065	18.665
-2.341423	-12.065	19.3936
-0.341423	-12.065	19.8845
1.658577	-12.065	11.0013
3.658577	-12.065	21.9383
5.658577	-12.065	19.144
7.658577	-12.065	27.3273
9.658577	-12.065	22.1554
11.6586	-12.065	1.252894
13.6586	-12.065	75.5122
15.6586	-12.065	20.0541
17.6586	-12.065	18.1153
19.6586	-12.065	16.1499
21.6586	-12.065	18.983
23.6586	-12.065	18.6799
-39.3414	-11.065	39.4682
-37.3414	-11.065	34.9202
-35.3414	-11.065	193.945
-33.3414	-11.065	35.0554
-31.3414	-11.065	36.282
-29.3414	-11.065	33.7345
-27.3414	-11.065	35.6932
-25.3414	-11.065	33.5756
-23.3414	-11.065	26.5551
-21.3414	-11.065	25.7082
-19.3414	-11.065	19.2531
-17.3414	-11.065	15.7787
-15.3414	-11.065	18.9315
-13.3414	-11.065	17.5258
-11.3414	-11.065	13.8422
-9.341423	-11.065	12.7233
-7.341423	-11.065	20.6274
-5.341423	-11.065	17.3227
-3.341423	-11.065	19.1074
-1.341423	-11.065	21.6904
0.658577	-11.065	28.6519
2.658577	-11.065	13.8428
4.658577	-11.065	23.9312
6.658577	-11.065	26.4726
8.658577	-11.065	24.987
10.6586	-11.065	0.741656
12.6586	-11.065	19.8309
14.6586	-11.065	16.3644
16.6586	-11.065	22.0313
18.6586	-11.065	22.4564
20.6586	-11.065	37.7901
22.6586	-11.065	22.4022
24.6586	-11.065	20.0149
-38.3414	-10.065	37.0986
-36.3414	-10.065	36.2822
-34.3414	-10.065	36.4992
-32.3414	-10.065	34.2855
-30.3414	-10.065	34.2092
-28.3414	-10.065	34.4624
-26.3414	-10.065	35.3354
-24.3414	-10.065	25.1611
-22.3414	-10.065	9.685104
-20.3414	-10.065	27.0682
-18.3414	-10.065	13.6623
-16.3414	-10.065	10.8745
-14.3414	-10.065	35.2737
-12.3414	-10.065	43.4866
-10.3414	-10.065	34.8649
-8.341423	-10.065	25.0344
-6.341423	-10.065	19.0805
-4.341423	-10.065	18.3894
-2.341423	-10.065	21.126
-0.341423	-10.065	22.9628
1.658577	-10.065	17.6567
3.658577	-10.065	65.9906
5.658577	-10.065	16.9792
7.658577	-10.065	31.4443
9.658577	-10.065	13.063
11.6586	-10.065	25.7668
13.6586	-10.065	20.4106
15.6586	-10.065	20.8121
17.6586	-10.065	24.0099
19.6586	-10.065	0.639823
21.6586	-10.065	20.1133
23.6586	-10.065	23.1002
-39.3414	-9.065000	35.6921
-37.3414	-9.065000	35.1099
-35.3414	-9.065000	33.8019
-33.3414	-9.065000	35.5347
-31.3414	-9.065000	33.4312
-29.3414	-9.065000	35.1345
-27.3414	-9.065000	36.4875
-25.3414	-9.065000	28.0282
-23.3414	-9.065000	4.797136
-21.3414	-9.065000	24.9283
-19.3414	-9.065000	18.8002
-17.3414	-9.065000	16.511
-15.3414	-9.065000	379.82
-13.3414	-9.065000	38.6729
-11.3414	-9.065000	36.0034
-9.341423	-9.065000	35.9393
-7.341423	-9.065000	21.9984
-5.341423	-9.065000	21.7357
-3.341423	-9.065000	13.1933
-1.341423	-9.065000	16.7747
0.658577	-9.065000	25.7693
2.658577	-9.065000	22.347
4.658577	-9.065000	19.9219
6.658577	-9.065000	32.6583
8.658577	-9.065000	7.923434
10.6586	-9.065000	0.639823
12.6586	-9.065000	22.3356
14.6586	-9.065000	22.9199
16.6586	-9.065000	18.1858
18.6586	-9.065000	69.7959
20.6586	-9.065000	59.3558
22.6586	-9.065000	24.7561
24.6586	-9.065000	24.5897
-38.3414	-8.065000	37.3406
-36.3414	-8.065000	35.6873
-34.3414	-8.065000	34.2188
-32.3414	-8.065000	32.4731
-30.3414	-8.065000	36.5473
-28.3414	-8.065000	36.883
-26.3414	-8.065000	36.4246
-24.3414	-8.065000	20.3939
-22.3414	-8.065000	24.7975
-20.3414	-8.065000	74.5216
-18.3414	-8.065000	21.6566
-16.3414	-8.065000	37.9013
-14.3414	-8.065000	30.2777
-12.3414	-8.065000	19.7427
-10.3414	-8.065000	40.4386
-8.341423	-8.065000	38.3714
-6.341423	-8.065000	30.6354
-4.341423	-8.065000	36.2748
-2.341423	-8.065000	10.5101
-0.341423	-8.065000	21.8757
1.658577	-8.065000	19.0443
3.658577	-8.065000	20.7484
5.658577	-8.065000	33.7869
7.658577	-8.065000	39.9727
9.658577	-8.065000	0.639823
11.6586	-8.065000	0.639823
13.6586	-8.065000	22.3532
15.6586	-8.065000	25.3373
17.6586	-8.065000	17.5417
19.6586	-8.065000	68.427
21.6586	-8.065000	69.0756
23.6586	-8.065000	20.2401
-39.3414	-7.065000	34.9897
-37.3414	-7.065000	34.3137
-35.3414	-7.065000	32.2618
-33.3414	-7.065000	33.6657
-31.3414	-7.065000	34.9573
-29.3414	-7.065000	37.2253
-27.3414	-7.065000	29.8023
-25.3414	-7.065000	35.925
-23.3414	-7.065000	17.4892
-21.3414	-7.065000	48.0638
-19.3414	-7.065000	31.2405
-17.3414	-7.065000	37.1173
-15.3414	-7.065000	18.6211
-13.3414	-7.065000	40.427
-11.3414	-7.065000	40.6226
-9.341423	-7.065000	35.731
-7.341423	-7.065000	26.1784
-5.341423	-7.065000	33.9132
-3.341423	-7.065000	28.5829
-1.341423	-7.065000	5.717110
0.658577	-7.065000	7.850241
2.658577	-7.065000	16.0027
4.658577	-7.065000	14.7692
6.658577	-7.065000	39.9026
8.658577	-7.065000	13.7973
10.6586	-7.065000	24.4113
12.6586	-7.065000	24.2886
14.6586	-7.065000	2.814332
16.6586	-7.065000	18.5491
18.6586	-7.065000	15.297
20.6586	-7.065000	17.133
22.6586	-7.065000	15.8759
24.6586	-7.065000	22.2462
-38.3414	-6.065000	39.4477
-36.3414	-6.065000	33.9338
-34.3414	-6.065000	35.2288
-32.3414	-6.065000	35.5702
-30.3414	-6.065000	36.9965
-28.3414	-6.065000	36.2518
-26.3414	-6.065000	35.1348
-24.3414	-6.065000	34.5559
-22.3414	-6.065000	21.5596
-20.3414	-6.065000	17.0324
-18.3414	-6.065000	3.350312
-16.3414	-6.065000	39.1981
-14.3414	-6.065000	38.2778
-12.3414	-6.065000	41.6225
-10.3414	-6.065000	37.5603
-8.341423	-6.065000	36.1787
-6.341423	-6.065000	35.7969
-4.341423	-6.065000	0.668170
-2.341423	-6.065000	16.3211
-0.341423	-6.065000	0.639823
1.658577	-6.065000	1.664154
3.658577	-6.065000	18.8509
5.658577	-6.065000	17.3682
7.658577	-6.065000	23.2202
9.658577	-6.065000	23.0257
11.6586	-6.065000	25.7767
13.6586	-6.065000	15.6013
15.6586	-6.065000	16.2635
17.6586	-6.065000	23.0051
19.6586	-6.065000	20.6611
21.6586	-6.065000	16.8129
23.6586	-6.065000	14.9497
-39.3414	-5.065000	28.194
-37.3414	-5.065000	39.1014
-35.3414	-5.065000	38.8362
-33.3414	-5.065000	35.6244
-31.3414	-5.065000	34.9929
-29.3414	-5.065000	34.6363
-27.3414	-5.065000	21.4917
-25.3414	-5.065000	21.4205
-23.3414	-5.065000	35.5579
-21.3414	-5.065000	27.8619
-19.3414	-5.065000	4.726232
-17.3414	-5.065000	30.3024
-15.3414	-5.065000	38.3939
-13.3414	-5.065000	39.6455
-11.3414	-5.065000	36.3104
-9.341423	-5.065000	36.4836
-7.341423	-5.065000	40.516
-5.341423	-5.065000	34.2934
-3.341423	-5.065000	3.016092
-1.341423	-5.065000	26.2963
0.658577	-5.065000	19.7652
2.658577	-5.065000	30.3322
4.658577	-5.065000	26.6699
6.658577	-5.065000	20.777
8.658577	-5.065000	12.3259
10.6586	-5.065000	19.5871
12.6586	-5.065000	32.7526
14.6586	-5.065000	7.678165
16.6586	-5.065000	21.7845
18.6586	-5.065000	18.583
20.6586	-5.065000	22.9909
22.6586	-5.065000	20.2903
24.6586	-5.065000	14.9319
-38.3414	-4.065000	31.7824
-36.3414	-4.065000	14.4515
-34.3414	-4.065000	40.5203
-32.3414	-4.065000	33.6252
-30.3414	-4.065000	30.9234
-28.3414	-4.065000	38.2016
-26.3414	-4.065000	25.2601
-24.3414	-4.065000	33.5894
-22.3414	-4.065000	40.629
-20.3414	-4.065000	18.6343
-18.3414	-4.065000	33.6044
-16.3414	-4.065000	32.4304
-14.3414	-4.065000	37.0024
-12.3414	-4.065000	41.1806
-10.3414	-4.065000	164.958
-8.341423	-4.065000	42.7437
-6.341423	-4.065000	19.6449
-4.341423	-4.065000	13.5864
-2.341423	-4.065000	34.6886
-0.341423	-4.065000	37.1122
1.658577	-4.065000	15.7447
3.658577	-4.065000	0.639823
5.658577	-4.065000	23.6386
7.658577	-4.065000	32.5039
9.658577	-4.065000	33.2096
11.6586	-4.065000	17.3413
13.6586	-4.065000	35.2371
15.6586	-4.065000	36.7876
17.6586	-4.065000	14.5643
19.6586	-4.065000	16.2768
21.6586	-4.065000	19.2073
23.6586	-4.065000	18.7782
-39.3414	-3.065000	0.639823
-37.3414	-3.065000	18.8841
-35.3414	-3.065000	83.1114
-33.3414	-3.065000	28.3564
-31.3414	-3.065000	30.3213
-29.3414	-3.065000	22.781
-27.3414	-3.065000	19.5021
-25.3414	-3.065000	127.726
-23.3414	-3.065000	39.6186
-21.3414	-3.065000	21.3641
-19.3414	-3.065000	20.0979
-17.3414	-3.065000	27.1537
-15.3414	-3.065000	33.9132
-13.3414	-3.065000	41.5976
-11.3414	-3.065000	14.1728
-9.341423	-3.065000	13.2425
-7.341423	-3.065000	15.3871
-5.341423	-3.065000	22.6037
-3.341423	-3.065000	20.8023
-1.341423	-3.065000	39.1444
0.658577	-3.065000	35.1828
2.658577	-3.065000	14.0572
4.658577	-3.065000	26.1033
6.658577	-3.065000	17.9893
8.658577	-3.065000	35.4277
10.6586	-3.065000	24.0334
12.6586	-3.065000	34.9453
14.6586	-3.065000	33.0126
16.6586	-3.065000	18.1154
18.6586	-3.065000	19.3594
20.6586	-3.065000	17.846
22.6586	-3.065000	7.781616
24.6586	-3.065000	10.9606
-38.3414	-2.065000	35.3105
-36.3414	-2.065000	15.8319
-34.3414	-2.065000	23.1528
-32.3414	-2.065000	2.058521
-30.3414	-2.065000	38.4671
-28.3414	-2.065000	2.515949
-26.3414	-2.065000	41.0975
-24.3414	-2.065000	41.8347
-22.3414	-2.065000	34.0779
-20.3414	-2.065000	21.8155
-18.3414	-2.065000	40.1638
-16.3414	-2.065000	19.5782
-14.3414	-2.065000	36.8682
-12.3414	-2.065000	44.0347
-10.3414	-2.065000	36.9565
-8.341423	-2.065000	16.8019
-6.341423	-2.065000	11.805
-4.341423	-2.065000	18.725
-2.341423	-2.065000	41.5349
-0.341423	-2.065000	37.6684
1.658577	-2.065000	36.7042
3.658577	-2.065000	33.8672
5.658577	-2.065000	19.0534
7.658577	-2.065000	24.2421
9.658577	-2.065000	24.1254
11.6586	-2.065000	12.9909
13.6586	-2.065000	38.6444
15.6586	-2.065000	3.365574
17.6586	-2.065000	11.9029
19.6586	-2.065000	27.9533
21.6586	-2.065000	0.639823
23.6586	-2.065000	14.9971
-39.3414	-1.065000	35.0487
-37.3414	-1.065000	23.4677
-35.3414	-1.065000	16.9954
-33.3414	-1.065000	22.9177
-31.3414	-1.065000	17.3628
-29.3414	-1.065000	10.6769
-27.3414	-1.065000	6.823435
-25.3414	-1.065000	41.2249
-23.3414	-1.065000	38.4019
-21.3414	-1.065000	37.7018
-19.3414	-1.065000	43.0394
-17.3414	-1.065000	20.3691
-15.3414	-1.065000	29.8152
-13.3414	-1.065000	40.9426
-11.3414	-1.065000	30.1988
-9.341423	-1.065000	15.755
-7.341423	-1.065000	13.6911
-5.341423	-1.065000	39.7353
-3.341423	-1.065000	27.1038
-1.341423	-1.065000	36.7049
0.658577	-1.065000	41.6146
2.658577	-1.065000	32.9908
4.658577	-1.065000	21.5242
6.658577	-1.065000	28.8332
8.658577	-1.065000	22.7139
10.6586	-1.065000	14.4509
12.6586	-1.065000	29.6159
14.6586	-1.065000	37.8077
16.6586	-1.065000	16.945
18.6586	-1.065000	17.5186
20.6586	-1.065000	39.5687
22.6586	-1.065000	11.768
24.6586	-1.065000	21.2127
-38.3414	-0.065000	22.2928
-36.3414	-0.065000	32.9499
-34.3414	-0.065000	18.8254
-32.3414	-0.065000	17.5854
-30.3414	-0.065000	33.1501
-28.3414	-0.065000	0.639823
-26.3414	-0.065000	21.5892
-24.3414	-0.065000	40.0379
-22.3414	-0.065000	31.1407
-20.3414	-0.065000	32.2882
-18.3414	-0.065000	22.6197
-16.3414	-0.065000	19.9219
-14.3414	-0.065000	38.8565
-12.3414	-0.065000	38.9476
-10.3414	-0.065000	22.5396
-8.341423	-0.065000	14.646
-6.341423	-0.065000	21.2802
-4.341423	-0.065000	22.6978
-2.341423	-0.065000	39.6544
-0.341423	-0.065000	39.4261
1.658577	-0.065000	37.2995
3.658577	-0.065000	21.1799
5.658577	-0.065000	20.9773
7.658577	-0.065000	39.191
9.658577	-0.065000	31.9146
11.6586	-0.065000	34.2522
13.6586	-0.065000	23.4183
15.6586	-0.065000	42.8981
17.6586	-0.065000	17.2893
19.6586	-0.065000	34.9245
21.6586	-0.065000	40.0368
23.6586	-0.065000	16.0137
-39.3414	0.935000	122.408
-37.3414	0.935000	29.4696
-35.3414	0.935000	19.0348
-33.3414	0.935000	20.4165
-31.3414	0.935000	17.7271
-29.3414	0.935000	4.669631
-27.3414	0.935000	11.7558
-25.3414	0.935000	38.2731
-23.3414	0.935000	21.4368
-21.3414	0.935000	36.9949
-19.3414	0.935000	25.4793
-17.3414	0.935000	20.461
-15.3414	0.935000	31.3055
-13.3414	0.935000	40.217
-11.3414	0.935000	38.2309
-9.341423	0.935000	18.0929
-7.341423	0.935000	14.5008
-5.341423	0.935000	36.0862
-3.341423	0.935000	36.4975
-1.341423	0.935000	38.7072
0.658577	0.935000	39.3187
2.658577	0.935000	17.7112
4.658577	0.935000	18.8616
6.658577	0.935000	24.9484
8.658577	0.935000	29.1052
10.6586	0.935000	33.9135
12.6586	0.935000	31.506
14.6586	0.935000	28.2444
16.6586	0.935000	31.7245
18.6586	0.935000	36.6887
20.6586	0.935000	41.0342
22.6586	0.935000	39.352
24.6586	0.935000	12.515
-38.3414	1.935000	43.3093
-36.3414	1.935000	21.609
-34.3414	1.935000	13.8111
-32.3414	1.935000	33.3291
-30.3414	1.935000	15.8571
-28.3414	1.935000	37.15
-26.3414	1.935000	40.0256
-24.3414	1.935000	12.4614
-22.3414	1.935000	40.7118
-20.3414	1.935000	39.6162
-18.3414	1.935000	12.2741
-16.3414	1.935000	112.659
-14.3414	1.935000	33.2731
-12.3414	1.935000	662.771
-10.3414	1.935000	40.999
-8.341423	1.935000	39.9048
-6.341423	1.935000	25.5327
-4.341423	1.935000	37.6597
-2.341423	1.935000	41.36
-0.341423	1.935000	40.6492
1.658577	1.935000	14.0046
3.658577	1.935000	15.2991
5.658577	1.935000	34.3112
7.658577	1.935000	37.0139
9.658577	1.935000	39.5124
11.6586	1.935000	41.0292
13.6586	1.935000	28.7229
15.6586	1.935000	23.7693
17.6586	1.935000	25.769
19.6586	1.935000	29.9903
21.6586	1.935000	42.7665
23.6586	1.935000	30.5193
-39.3414	2.935000	34.1241
-37.3414	2.935000	29.6352
-35.3414	2.935000	19.1423
-33.3414	2.935000	20.115
-31.3414	2.935000	11.8765
-29.3414	2.935000	26.4893
-27.3414	2.935000	33.6932
-25.3414	2.935000	30.641
-23.3414	2.935000	38.309
-21.3414	2.935000	41.3447
-19.3414	2.935000	30.1463
-17.3414	2.935000	35.1705
-15.3414	2.935000	33.0023
-13.3414	2.935000	33.1634
-11.3414	2.935000	34.7285
-9.341423	2.935000	40.8745
-7.341423	2.935000	23.8747
-5.341423	2.935000	41.262
-3.341423	2.935000	37.7899
-1.341423	2.935000	37.5989
0.658577	2.935000	41.0096
2.658577	2.935000	17.0086
4.658577	2.935000	18.4797
6.658577	2.935000	12.5217
8.658577	2.935000	38.3094
10.6586	2.935000	39.407
12.6586	2.935000	38.0223
14.6586	2.935000	35.4745
16.6586	2.935000	15.7992
18.6586	2.935000	32.7716
20.6586	2.935000	28.0387
22.6586	2.935000	41.2341
24.6586	2.935000	16.6625
-38.3414	3.935000	28.2845
-36.3414	3.935000	19.0229
-34.3414	3.935000	3.947791
-32.3414	3.935000	21.3975
-30.3414	3.935000	25.813
-28.3414	3.935000	26.7552
-26.3414	3.935000	22.5768
-24.3414	3.935000	41.854
-22.3414	3.935000	11.0878
-20.3414	3.935000	35.459
-18.3414	3.935000	38.8562
-16.3414	3.935000	22.9398
-14.3414	3.935000	19.365
-12.3414	3.935000	16.3373
-10.3414	3.935000	27.2996
-8.341423	3.935000	21.9067
-6.341423	3.935000	31.4809
-4.341423	3.935000	35.6549
-2.341423	3.935000	39.3132
-0.341423	3.935000	37.3039
1.658577	3.935000	31.5483
3.658577	3.935000	17.8768
5.658577	3.935000	22.4762
7.658577	3.935000	38.9616
9.658577	3.935000	38.8426
11.6586	3.935000	17.2661
13.6586	3.935000	22.2499
15.6586	3.935000	14.7069
17.6586	3.935000	42.7604
19.6586	3.935000	38.868
21.6586	3.935000	34.6293
23.6586	3.935000	20.6627
-39.3414	4.935000	37.1801
-37.3414	4.935000	32.1562
-35.3414	4.935000	36.5341
-33.3414	4.935000	10.5016
-31.3414	4.935000	22.7274
-29.3414	4.935000	27.6678
-27.3414	4.935000	25.7842
-25.3414	4.935000	37.6833
-23.3414	4.935000	12.7041
-21.3414	4.935000	20.6668
-19.3414	4.935000	39.2489
-17.3414	4.935000	38.6671
-15.3414	4.935000	34.0162
-13.3414	4.935000	1.754017
-11.3414	4.935000	23.4671
-9.341423	4.935000	24.7413
-7.341423	4.935000	19.5817
-5.341423	4.935000	26.7415
-3.341423	4.935000	39.6721
-1.341423	4.935000	38.642
0.658577	4.935000	37.4464
2.658577	4.935000	31.1617
4.658577	4.935000	21.3653
6.658577	4.935000	21.402
8.658577	4.935000	34.717
10.6586	4.935000	42.5142
12.6586	4.935000	40.1677
14.6586	4.935000	27.0309
16.6586	4.935000	24.3766
18.6586	4.935000	36.1482
20.6586	4.935000	22.6225
22.6586	4.935000	35.6339
24.6586	4.935000	7.901990
-38.3414	5.935000	39.6159
-36.3414	5.935000	36.8734
-34.3414	5.935000	37.1465
-32.3414	5.935000	38.6101
-30.3414	5.935000	16.8135
-28.3414	5.935000	28.3694
-26.3414	5.935000	25.5268
-24.3414	5.935000	43.4438
-22.3414	5.935000	17.7305
-20.3414	5.935000	43.2746
-18.3414	5.935000	39.2967
-16.3414	5.935000	40.4311
-14.3414	5.935000	33.6353
-12.3414	5.935000	40.3581
-10.3414	5.935000	34.9396
-8.341423	5.935000	25.8484
-6.341423	5.935000	20.7022
-4.341423	5.935000	15.2744
-2.341423	5.935000	38.7831
-0.341423	5.935000	36.6688
1.658577	5.935000	38.6164
3.658577	5.935000	20.761
5.658577	5.935000	20.9147
7.658577	5.935000	14.2097
9.658577	5.935000	28.503
11.6586	5.935000	29.2863
13.6586	5.935000	17.7233
15.6586	5.935000	33.3392
17.6586	5.935000	40.0564
19.6586	5.935000	37.9492
21.6586	5.935000	35.3985
23.6586	5.935000	40.1045
-39.3414	6.935000	36.4114
-37.3414	6.935000	36.3015
-35.3414	6.935000	35.1549
-33.3414	6.935000	38.382
-31.3414	6.935000	22.0324
-29.3414	6.935000	31.0605
-27.3414	6.935000	15.4637
-25.3414	6.935000	33.3894
-23.3414	6.935000	17.234
-21.3414	6.935000	16.9364
-19.3414	6.935000	39.3808
-17.3414	6.935000	39.8776
-15.3414	6.935000	33.9364
-13.3414	6.935000	41.7438
-11.3414	6.935000	19.4095
-9.341423	6.935000	15.584
-7.341423	6.935000	17.0175
-5.341423	6.935000	19.4897
-3.341423	6.935000	21.5363
-1.341423	6.935000	36.4414
0.658577	6.935000	37.8403
2.658577	6.935000	27.3919
4.658577	6.935000	23.8724
6.658577	6.935000	21.681
8.658577	6.935000	14.6646
10.6586	6.935000	32.3274
12.6586	6.935000	31.4599
14.6586	6.935000	24.4702
16.6586	6.935000	31.1482
18.6586	6.935000	39.4441
20.6586	6.935000	32.3961
22.6586	6.935000	35.8142
24.6586	6.935000	40.1473
-38.3414	7.935000	35.6272
-36.3414	7.935000	34.0615
-34.3414	7.935000	38.398
-32.3414	7.935000	39.9141
-30.3414	7.935000	26.0001
-28.3414	7.935000	21.1803
-26.3414	7.935000	18.5097
-24.3414	7.935000	16.8293
-22.3414	7.935000	14.0249
-20.3414	7.935000	18.5081
-18.3414	7.935000	27.6446
-16.3414	7.935000	31.1487
-14.3414	7.935000	40.4594
-12.3414	7.935000	39.3827
-10.3414	7.935000	13.7529
-8.341423	7.935000	17.4896
-6.341423	7.935000	20.0163
-4.341423	7.935000	24.9976
-2.341423	7.935000	36.6321
-0.341423	7.935000	39.4805
1.658577	7.935000	25.9288
3.658577	7.935000	17.4295
5.658577	7.935000	19.7074
7.658577	7.935000	17.5143
9.658577	7.935000	19.3888
11.6586	7.935000	25.7851
13.6586	7.935000	29.7641
15.6586	7.935000	29.5475
17.6586	7.935000	23.7898
19.6586	7.935000	38.1552
21.6586	7.935000	32.9811
23.6586	7.935000	24.9955
-39.3414	8.935000	33.7967
-37.3414	8.935000	33.222
-35.3414	8.935000	33.6817
-33.3414	8.935000	38.9155
-31.3414	8.935000	39.6147
-29.3414	8.935000	26.0945
-27.3414	8.935000	17.9297
-25.3414	8.935000	19.56
-23.3414	8.935000	17.0215
-21.3414	8.935000	15.0341
-19.3414	8.935000	19.4647
-17.3414	8.935000	40.0683
-15.3414	8.935000	36.6646
-13.3414	8.935000	26.5644
-11.3414	8.935000	11.754
-9.341423	8.935000	12.669
-7.341423	8.935000	14.5447
-5.341423	8.935000	15.8787
-3.341423	8.935000	22.1572
-1.341423	8.935000	40.6274
0.658577	8.935000	37.8673
2.658577	8.935000	26.0553
4.658577	8.935000	20.5406
6.658577	8.935000	68.5192
8.658577	8.935000	25.6751
10.6586	8.935000	16.5108
12.6586	8.935000	23.3827
14.6586	8.935000	31.5145
16.6586	8.935000	36.7419
18.6586	8.935000	9.545530
20.6586	8.935000	25.6357
22.6586	8.935000	22.3195
24.6586	8.935000	28.5077
-38.3414	9.935000	34.2491
-36.3414	9.935000	32.8767
-34.3414	9.935000	35.5805
-32.3414	9.935000	36.2489
-30.3414	9.935000	40.0582
-28.3414	9.935000	33.1051
-26.3414	9.935000	19.7291
-24.3414	9.935000	24.9357
-22.3414	9.935000	16.7361
-20.3414	9.935000	21.3333
-18.3414	9.935000	18.3551
-16.3414	9.935000	34.2312
-14.3414	9.935000	37.5617
-12.3414	9.935000	26.0136
-10.3414	9.935000	15.6184
-8.341423	9.935000	16.4645
-6.341423	9.935000	38.099
-4.341423	9.935000	70.4654
-2.341423	9.935000	26.8814
-0.341423	9.935000	36.2027
1.658577	9.935000	25.1494
3.658577	9.935000	19.5752
5.658577	9.935000	23.2721
7.658577	9.935000	17.1176
9.658577	9.935000	18.5818
11.6586	9.935000	18.3854
13.6586	9.935000	19.3945
15.6586	9.935000	0.639823
17.6586	9.935000	1.077477
19.6586	9.935000	25.099
21.6586	9.935000	28.647
23.6586	9.935000	0.639823
-39.3414	10.935	35.0485
-37.3414	10.935	35.1593
-35.3414	10.935	35.037
-33.3414	10.935	37.7568
-31.3414	10.935	35.4258
-29.3414	10.935	38.5347
-27.3414	10.935	27.9097
-25.3414	10.935	17.1277
-23.3414	10.935	44.3786
-21.3414	10.935	19.0229
-19.3414	10.935	23.7506
-17.3414	10.935	30.9125
-15.3414	10.935	31.8238
-13.3414	10.935	28.6316
-11.3414	10.935	13.9747
-9.341423	10.935	19.3421
-7.341423	10.935	44.6475
-5.341423	10.935	39.6146
-3.341423	10.935	37.4978
-1.341423	10.935	130.557
0.658577	10.935	29.4926
2.658577	10.935	16.3431
4.658577	10.935	33.4759
6.658577	10.935	19.3597
8.658577	10.935	27.9259
10.6586	10.935	22.3587
12.6586	10.935	20.5117
14.6586	10.935	4.599204
16.6586	10.935	2595.12
18.6586	10.935	2.021863
20.6586	10.935	35.8946
22.6586	10.935	40.0528
24.6586	10.935	26.5508
-38.3414	11.935	35.9475
-36.3414	11.935	37.0148
-34.3414	11.935	37.426
-32.3414	11.935	38.7833
-30.3414	11.935	36.8225
-28.3414	11.935	35.8541
-26.3414	11.935	19.2407
-24.3414	11.935	16.1357
-22.3414	11.935	22.257
-20.3414	11.935	23.5148
-18.3414	11.935	22.0016
-16.3414	11.935	17.5557
-14.3414	11.935	36.6218
-12.3414	11.935	16.5652
-10.3414	11.935	4.599266
-8.341423	11.935	17.5837
-6.341423	11.935	18.1376
-4.341423	11.935	40.7091
-2.341423	11.935	26.9817
-0.341423	11.935	37.1611
1.658577	11.935	20.0281
3.658577	11.935	23.5434
5.658577	11.935	18.729
7.658577	11.935	106.684
9.658577	11.935	18.3567
11.6586	11.935	19.9416
13.6586	11.935	18.9602
15.6586	11.935	118.571
17.6586	11.935	149.459
19.6586	11.935	0.639823
21.6586	11.935	31.7857
23.6586	11.935	33.7407
-39.3414	12.935	38.9125
-37.3414	12.935	40.9798
-35.3414	12.935	38.584
-33.3414	12.935	35.8295
-31.3414	12.935	38.8368
-29.3414	12.935	37.8477
-27.3414	12.935	17.818
-25.3414	12.935	22.6289
-23.3414	12.935	30.3733
-21.3414	12.935	35.4245
-19.3414	12.935	36.8822
-17.3414	12.935	13.6539
-15.3414	12.935	32.2275
-13.3414	12.935	22.1388
-11.3414	12.935	14.2321
-9.341423	12.935	17.1646
-7.341423	12.935	18.618
-5.341423	12.935	26.2319
-3.341423	12.935	25.5607
-1.341423	12.935	18.9788
0.658577	12.935	23.1142
2.658577	12.935	21.311
4.658577	12.935	33.8649
6.658577	12.935	36.9519
8.658577	12.935	70.4413
10.6586	12.935	23.5708
12.6586	12.935	17.5544
14.6586	12.935	13.4448
16.6586	12.935	11.0606
18.6586	12.935	0.639823
20.6586	12.935	0.639823
22.6586	12.935	24.9446
24.6586	12.935	26.5127
-38.3414	13.935	36.0164
-36.3414	13.935	37.346
-34.3414	13.935	35.5712
-32.3414	13.935	36.691
-30.3414	13.935	39.1528
-28.3414	13.935	16.8824
-26.3414	13.935	12.9681
-24.3414	13.935	39.352
-22.3414	13.935	17.7129
-20.3414	13.935	35.0473
-18.3414	13.935	40.8324
-16.3414	13.935	17.7984
-14.3414	13.935	39.1715
-12.3414	13.935	18.0359
-10.3414	13.935	30.9005
-8.341423	13.935	20.7431
-6.341423	13.935	40.0472
-4.341423	13.935	36.1754
-2.341423	13.935	14.3046
-0.341423	13.935	37.8072
1.658577	13.935	15.9729
3.658577	13.935	28.5818
5.658577	13.935	13.0185
7.658577	13.935	40.9111
9.658577	13.935	20.4987
11.6586	13.935	15.8724
13.6586	13.935	12.6924
15.6586	13.935	922.705
17.6586	13.935	21.7884
19.6586	13.935	0.639823
21.6586	13.935	27.6762
23.6586	13.935	2.059731
-39.3414	14.935	35.4185
-37.3414	14.935	35.9474
-35.3414	14.935	36.2279
-33.3414	14.935	32.1709
-31.3414	14.935	33.5575
-29.3414	14.935	42.4172
-27.3414	14.935	16.3359
-25.3414	14.935	16.1664
-23.3414	14.935	25.837
-21.3414	14.935	34.1268
-19.3414	14.935	37.3559
-17.3414	14.935	22.3668
-15.3414	14.935	33.0493
-13.3414	14.935	39.8487
-11.3414	14.935	36.9837
-9.341423	14.935	9.592516
-7.341423	14.935	32.9447
-5.341423	14.935	16.1064
-3.341423	14.935	30.0846
-1.341423	14.935	30.6496
0.658577	14.935	15.9002
2.658577	14.935	21.512
4.658577	14.935	3.823946
6.658577	14.935	0.639823
8.658577	14.935	20.981
10.6586	14.935	17.5204
12.6586	14.935	30.2041
14.6586	14.935	0.762961
16.6586	14.935	0.690795
18.6586	14.935	56.4614
20.6586	14.935	0.818461
22.6586	14.935	3.577616
24.6586	14.935	32.5269
-38.3414	15.935	36.1428
-36.3414	15.935	34.1747
-34.3414	15.935	34.8975
-32.3414	15.935	35.2789
-30.3414	15.935	19.6158
-28.3414	15.935	29.8696
-26.3414	15.935	15.8166
-24.3414	15.935	16.9263
-22.3414	15.935	18.1119
-20.3414	15.935	22.7823
-18.3414	15.935	41.7584
-16.3414	15.935	43.147
-14.3414	15.935	38.4489
-12.3414	15.935	37.1019
-10.3414	15.935	4.504991
-8.341423	15.935	15.9059
-6.341423	15.935	21.1571
-4.341423	15.935	28.9428
-2.341423	15.935	23.0454
-0.341423	15.935	13.5806
1.658577	15.935	21.2504
3.658577	15.935	28.7531
5.658577	15.935	9.181152
7.658577	15.935	4.023387
9.658577	15.935	20.4779
11.6586	15.935	19.8419
13.6586	15.935	28.6707
15.6586	15.935	4.082221
17.6586	15.935	3.085013
19.6586	15.935	0.639823
21.6586	15.935	56.2311
23.6586	15.935	231.825
24.6586	15.935	3.158348