File: data/derived_data/raman/20170920_Gr-NH2_for_Radisurf/20170920 Gr-NH for Radisurf map 2/Dp int.txt
#XList		#YList		#IList
-39.3414	-21.065	48.5242
-37.3414	-21.065	30.3197
-35.3414	-21.065	39.1288
-33.3414	-21.065	390.382
-31.3414	-21.065	714.427
-29.3414	-21.065	471.898
-27.3414	-21.065	472.648
-25.3414	-21.065	56.2341
-23.3414	-21.065	3.855817
-21.3414	-21.065	102.964
-19.3414	-21.065	12.978
-17.3414	-21.065	124.868
-15.3414	-21.065	855.565
-13.3414	-21.065	529.976
-11.3414	-21.065	109.29
-9.341423	-21.065	0.000000
-7.341423	-21.065	118.74
-5.341423	-21.065	177.599
-3.341423	-21.065	7.391188
-1.341423	-21.065	85.8063
0.658577	-21.065	77.1852
2.658577	-21.065	106.719
4.658577	-21.065	65.7211
6.658577	-21.065	0.000000
8.658577	-21.065	7.920639
10.6586	-21.065	64.4943
12.6586	-21.065	165.013
14.6586	-21.065	245.542
16.6586	-21.065	69.8278
18.6586	-21.065	182.547
20.6586	-21.065	56.2175
22.6586	-21.065	0.000000
24.6586	-21.065	0.000000
-38.3414	-20.065	47.0672
-36.3414	-20.065	41.8808
-34.3414	-20.065	95.9299
-32.3414	-20.065	304.633
-30.3414	-20.065	363.417
-28.3414	-20.065	141.07
-26.3414	-20.065	188.385
-24.3414	-20.065	131.272
-22.3414	-20.065	41.9316
-20.3414	-20.065	110.573
-18.3414	-20.065	61.0082
-16.3414	-20.065	911.86
-14.3414	-20.065	735.609
-12.3414	-20.065	724.832
-10.3414	-20.065	16.7084
-8.341423	-20.065	114.92
-6.341423	-20.065	141.527
-4.341423	-20.065	71.1507
-2.341423	-20.065	314.34
-0.341423	-20.065	91.9027
1.658577	-20.065	65.6927
3.658577	-20.065	49.6575
5.658577	-20.065	19.0421
7.658577	-20.065	0.000000
9.658577	-20.065	75.753
11.6586	-20.065	106.054
13.6586	-20.065	182.006
15.6586	-20.065	161.78
17.6586	-20.065	114.645
19.6586	-20.065	373.772
21.6586	-20.065	160.388
23.6586	-20.065	72.4483
-39.3414	-19.065	82.4566
-37.3414	-19.065	29.9131
-35.3414	-19.065	58.7666
-33.3414	-19.065	94.1996
-31.3414	-19.065	751.911
-29.3414	-19.065	157.986
-27.3414	-19.065	166.866
-25.3414	-19.065	186.57
-23.3414	-19.065	200.315
-21.3414	-19.065	154.443
-19.3414	-19.065	277.794
-17.3414	-19.065	792.693
-15.3414	-19.065	838.711
-13.3414	-19.065	635.797
-11.3414	-19.065	183.434
-9.341423	-19.065	157.844
-7.341423	-19.065	186.556
-5.341423	-19.065	131.8
-3.341423	-19.065	0.000000
-1.341423	-19.065	83.8485
0.658577	-19.065	47.8587
2.658577	-19.065	56.906
4.658577	-19.065	73.4663
6.658577	-19.065	7.135876
8.658577	-19.065	154.686
10.6586	-19.065	107.19
12.6586	-19.065	187.163
14.6586	-19.065	193.044
16.6586	-19.065	176.041
18.6586	-19.065	153.633
20.6586	-19.065	372.874
22.6586	-19.065	32.6486
24.6586	-19.065	3.603269
-38.3414	-18.065	66.8208
-36.3414	-18.065	84.7333
-34.3414	-18.065	8.409606
-32.3414	-18.065	409.565
-30.3414	-18.065	732.054
-28.3414	-18.065	224.807
-26.3414	-18.065	450.161
-24.3414	-18.065	191.472
-22.3414	-18.065	165.559
-20.3414	-18.065	181.433
-18.3414	-18.065	223.379
-16.3414	-18.065	636.206
-14.3414	-18.065	786.401
-12.3414	-18.065	641.552
-10.3414	-18.065	193.34
-8.341423	-18.065	170.264
-6.341423	-18.065	199.934
-4.341423	-18.065	155.686
-2.341423	-18.065	108.05
-0.341423	-18.065	80.8433
1.658577	-18.065	37.118
3.658577	-18.065	65.8417
5.658577	-18.065	56.7801
7.658577	-18.065	618.359
9.658577	-18.065	392.874
11.6586	-18.065	560.907
13.6586	-18.065	369.096
15.6586	-18.065	185.997
17.6586	-18.065	152.34
19.6586	-18.065	115.268
21.6586	-18.065	159.751
23.6586	-18.065	296.744
-39.3414	-17.065	0.000000
-37.3414	-17.065	736.528
-35.3414	-17.065	8.093624
-33.3414	-17.065	12.2046
-31.3414	-17.065	149.907
-29.3414	-17.065	390.518
-27.3414	-17.065	144.552
-25.3414	-17.065	176.977
-23.3414	-17.065	219.392
-21.3414	-17.065	315.979
-19.3414	-17.065	242.935
-17.3414	-17.065	353.731
-15.3414	-17.065	828.708
-13.3414	-17.065	699.121
-11.3414	-17.065	320.715
-9.341423	-17.065	164.273
-7.341423	-17.065	48.8378
-5.341423	-17.065	501.786
-3.341423	-17.065	80.6466
-1.341423	-17.065	230.696
0.658577	-17.065	88.9558
2.658577	-17.065	43.9106
4.658577	-17.065	182.968
6.658577	-17.065	185.676
8.658577	-17.065	363.434
10.6586	-17.065	394.745
12.6586	-17.065	412.817
14.6586	-17.065	177.303
16.6586	-17.065	139.761
18.6586	-17.065	81.8416
20.6586	-17.065	40.4165
22.6586	-17.065	318.751
24.6586	-17.065	424.023
-38.3414	-16.065	306.589
-36.3414	-16.065	70.7093
-34.3414	-16.065	134.121
-32.3414	-16.065	606.048
-30.3414	-16.065	335.041
-28.3414	-16.065	158.605
-26.3414	-16.065	357.398
-24.3414	-16.065	182.863
-22.3414	-16.065	202.788
-20.3414	-16.065	32.2478
-18.3414	-16.065	9.107388
-16.3414	-16.065	386.821
-14.3414	-16.065	969.296
-12.3414	-16.065	457.114
-10.3414	-16.065	165.545
-8.341423	-16.065	63.2404
-6.341423	-16.065	233.206
-4.341423	-16.065	149.81
-2.341423	-16.065	39.0597
-0.341423	-16.065	259.881
1.658577	-16.065	72.7131
3.658577	-16.065	33.6355
5.658577	-16.065	162.843
7.658577	-16.065	318.322
9.658577	-16.065	157.321
11.6586	-16.065	570.895
13.6586	-16.065	50.0379
15.6586	-16.065	384.417
17.6586	-16.065	124.081
19.6586	-16.065	178.672
21.6586	-16.065	172.908
23.6586	-16.065	221.317
-39.3414	-15.065	36.5611
-37.3414	-15.065	67.5663
-35.3414	-15.065	810.35
-33.3414	-15.065	708.518
-31.3414	-15.065	373.545
-29.3414	-15.065	178.687
-27.3414	-15.065	395.185
-25.3414	-15.065	184.535
-23.3414	-15.065	164.39
-21.3414	-15.065	176.295
-19.3414	-15.065	0.206366
-17.3414	-15.065	601.809
-15.3414	-15.065	696.151
-13.3414	-15.065	658.492
-11.3414	-15.065	112.311
-9.341423	-15.065	129.194
-7.341423	-15.065	89.8608
-5.341423	-15.065	154.179
-3.341423	-15.065	35.7026
-1.341423	-15.065	44.7223
0.658577	-15.065	191.768
2.658577	-15.065	71.1203
4.658577	-15.065	131.257
6.658577	-15.065	526.101
8.658577	-15.065	377.256
10.6586	-15.065	414.63
12.6586	-15.065	48.2276
14.6586	-15.065	107.404
16.6586	-15.065	132.551
18.6586	-15.065	164.617
20.6586	-15.065	55.5471
22.6586	-15.065	315.501
24.6586	-15.065	187.269
-38.3414	-14.065	110.705
-36.3414	-14.065	737.869
-34.3414	-14.065	548.733
-32.3414	-14.065	671.818
-30.3414	-14.065	384.542
-28.3414	-14.065	139.542
-26.3414	-14.065	286.69
-24.3414	-14.065	129.043
-22.3414	-14.065	149.498
-20.3414	-14.065	190.654
-18.3414	-14.065	241.397
-16.3414	-14.065	386.1
-14.3414	-14.065	648.684
-12.3414	-14.065	314.145
-10.3414	-14.065	85.724
-8.341423	-14.065	44.0519
-6.341423	-14.065	88.152
-4.341423	-14.065	46.891
-2.341423	-14.065	30.7622
-0.341423	-14.065	114.2
1.658577	-14.065	120.546
3.658577	-14.065	33.2467
5.658577	-14.065	119.735
7.658577	-14.065	517.073
9.658577	-14.065	473.943
11.6586	-14.065	11.2241
13.6586	-14.065	204.865
15.6586	-14.065	9.876975
17.6586	-14.065	14.5528
19.6586	-14.065	60.7392
21.6586	-14.065	159.439
23.6586	-14.065	119.482
-39.3414	-13.065	419.787
-37.3414	-13.065	723.084
-35.3414	-13.065	580.303
-33.3414	-13.065	601.68
-31.3414	-13.065	598.878
-29.3414	-13.065	424.78
-27.3414	-13.065	292.798
-25.3414	-13.065	195.371
-23.3414	-13.065	159.37
-21.3414	-13.065	113.455
-19.3414	-13.065	96.7198
-17.3414	-13.065	22.0589
-15.3414	-13.065	102.079
-13.3414	-13.065	11.0364
-11.3414	-13.065	86.5032
-9.341423	-13.065	50.5257
-7.341423	-13.065	49.4036
-5.341423	-13.065	81.2061
-3.341423	-13.065	56.911
-1.341423	-13.065	102.764
0.658577	-13.065	149.059
2.658577	-13.065	48.1705
4.658577	-13.065	47.7747
6.658577	-13.065	124.128
8.658577	-13.065	475.483
10.6586	-13.065	18.6897
12.6586	-13.065	13.2325
14.6586	-13.065	137.906
16.6586	-13.065	138.307
18.6586	-13.065	161.185
20.6586	-13.065	282.482
22.6586	-13.065	160.61
24.6586	-13.065	102.936
-38.3414	-12.065	652.211
-36.3414	-12.065	656.2
-34.3414	-12.065	586.073
-32.3414	-12.065	576.479
-30.3414	-12.065	521.202
-28.3414	-12.065	510.483
-26.3414	-12.065	469.688
-24.3414	-12.065	439.393
-22.3414	-12.065	434.861
-20.3414	-12.065	63.7216
-18.3414	-12.065	30.6504
-16.3414	-12.065	22.8842
-14.3414	-12.065	17.2929
-12.3414	-12.065	144.491
-10.3414	-12.065	98.2577
-8.341423	-12.065	48.3157
-6.341423	-12.065	134.637
-4.341423	-12.065	45.3458
-2.341423	-12.065	129.32
-0.341423	-12.065	154.175
1.658577	-12.065	42.8703
3.658577	-12.065	40.3864
5.658577	-12.065	52.6009
7.658577	-12.065	233.568
9.658577	-12.065	7.316366
11.6586	-12.065	5.356871
13.6586	-12.065	61.124
15.6586	-12.065	209.247
17.6586	-12.065	247.933
19.6586	-12.065	126.402
21.6586	-12.065	105.866
23.6586	-12.065	131.578
-39.3414	-11.065	764.488
-37.3414	-11.065	665.385
-35.3414	-11.065	0.000000
-33.3414	-11.065	532.412
-31.3414	-11.065	526.543
-29.3414	-11.065	605.242
-27.3414	-11.065	582.25
-25.3414	-11.065	395.092
-23.3414	-11.065	197.604
-21.3414	-11.065	88.1653
-19.3414	-11.065	174.021
-17.3414	-11.065	32.6716
-15.3414	-11.065	104.444
-13.3414	-11.065	35.5817
-11.3414	-11.065	127.237
-9.341423	-11.065	35.8567
-7.341423	-11.065	91.0712
-5.341423	-11.065	69.8886
-3.341423	-11.065	42.5665
-1.341423	-11.065	96.8626
0.658577	-11.065	58.5438
2.658577	-11.065	102.244
4.658577	-11.065	34.248
6.658577	-11.065	113.492
8.658577	-11.065	0.006047
10.6586	-11.065	24.0546
12.6586	-11.065	12.8526
14.6586	-11.065	190.422
16.6586	-11.065	132.597
18.6586	-11.065	76.1914
20.6586	-11.065	45.0325
22.6586	-11.065	72.236
24.6586	-11.065	142.094
-38.3414	-10.065	669.924
-36.3414	-10.065	541.597
-34.3414	-10.065	576.785
-32.3414	-10.065	667.885
-30.3414	-10.065	575.115
-28.3414	-10.065	578.088
-26.3414	-10.065	590.861
-24.3414	-10.065	253.147
-22.3414	-10.065	12.1128
-20.3414	-10.065	214.012
-18.3414	-10.065	55.129
-16.3414	-10.065	83.3039
-14.3414	-10.065	312.226
-12.3414	-10.065	459.215
-10.3414	-10.065	194.321
-8.341423	-10.065	33.477
-6.341423	-10.065	22.9948
-4.341423	-10.065	22.5206
-2.341423	-10.065	39.5921
-0.341423	-10.065	110.844
1.658577	-10.065	132.203
3.658577	-10.065	30.6675
5.658577	-10.065	63.1727
7.658577	-10.065	334.875
9.658577	-10.065	7.525534
11.6586	-10.065	0.000000
13.6586	-10.065	137.295
15.6586	-10.065	222.908
17.6586	-10.065	66.7496
19.6586	-10.065	0.000000
21.6586	-10.065	71.418
23.6586	-10.065	81.8186
-39.3414	-9.065000	589.131
-37.3414	-9.065000	501.371
-35.3414	-9.065000	634.515
-33.3414	-9.065000	650.135
-31.3414	-9.065000	627.651
-29.3414	-9.065000	615.453
-27.3414	-9.065000	659.508
-25.3414	-9.065000	157.959
-23.3414	-9.065000	9.780245
-21.3414	-9.065000	2.882366
-19.3414	-9.065000	121.539
-17.3414	-9.065000	78.7609
-15.3414	-9.065000	0.000000
-13.3414	-9.065000	240.255
-11.3414	-9.065000	715.923
-9.341423	-9.065000	189.357
-7.341423	-9.065000	57.9648
-5.341423	-9.065000	15.0931
-3.341423	-9.065000	33.0562
-1.341423	-9.065000	51.3777
0.658577	-9.065000	143.258
2.658577	-9.065000	22.4195
4.658577	-9.065000	80.1265
6.658577	-9.065000	321.005
8.658577	-9.065000	12.1823
10.6586	-9.065000	0.000000
12.6586	-9.065000	132.399
14.6586	-9.065000	89.7469
16.6586	-9.065000	90.0307
18.6586	-9.065000	83.668
20.6586	-9.065000	99.0374
22.6586	-9.065000	92.6647
24.6586	-9.065000	49.5244
-38.3414	-8.065000	481.075
-36.3414	-8.065000	642.371
-34.3414	-8.065000	677.914
-32.3414	-8.065000	750.175
-30.3414	-8.065000	564.34
-28.3414	-8.065000	595.877
-26.3414	-8.065000	473.951
-24.3414	-8.065000	116.221
-22.3414	-8.065000	12.0904
-20.3414	-8.065000	108.89
-18.3414	-8.065000	167.788
-16.3414	-8.065000	418.682
-14.3414	-8.065000	135.228
-12.3414	-8.065000	163.337
-10.3414	-8.065000	390.481
-8.341423	-8.065000	432.642
-6.341423	-8.065000	19.5644
-4.341423	-8.065000	25.8926
-2.341423	-8.065000	21.9934
-0.341423	-8.065000	49.9662
1.658577	-8.065000	34.8325
3.658577	-8.065000	124.784
5.658577	-8.065000	297.358
7.658577	-8.065000	396.873
9.658577	-8.065000	0.000000
11.6586	-8.065000	0.000000
13.6586	-8.065000	151.029
15.6586	-8.065000	152.069
17.6586	-8.065000	151.745
19.6586	-8.065000	108.71
21.6586	-8.065000	62.0727
23.6586	-8.065000	107.846
-39.3414	-7.065000	548.889
-37.3414	-7.065000	590.801
-35.3414	-7.065000	683.893
-33.3414	-7.065000	759.25
-31.3414	-7.065000	592.907
-29.3414	-7.065000	579.445
-27.3414	-7.065000	170.385
-25.3414	-7.065000	682.75
-23.3414	-7.065000	85.5811
-21.3414	-7.065000	79.8023
-19.3414	-7.065000	381.649
-17.3414	-7.065000	584.903
-15.3414	-7.065000	125.85
-13.3414	-7.065000	347.307
-11.3414	-7.065000	388.969
-9.341423	-7.065000	489.15
-7.341423	-7.065000	12.1661
-5.341423	-7.065000	0.000000
-3.341423	-7.065000	181.086
-1.341423	-7.065000	10.7236
0.658577	-7.065000	8.613343
2.658577	-7.065000	138.288
4.658577	-7.065000	129.268
6.658577	-7.065000	178.894
8.658577	-7.065000	7.440599
10.6586	-7.065000	82.3123
12.6586	-7.065000	18.2533
14.6586	-7.065000	0.000000
16.6586	-7.065000	109.251
18.6586	-7.065000	98.9236
20.6586	-7.065000	147.544
22.6586	-7.065000	99.3329
24.6586	-7.065000	85.6364
-38.3414	-6.065000	521.489
-36.3414	-6.065000	607.73
-34.3414	-6.065000	665.179
-32.3414	-6.065000	711.556
-30.3414	-6.065000	587.543
-28.3414	-6.065000	687.401
-26.3414	-6.065000	556.886
-24.3414	-6.065000	685.417
-22.3414	-6.065000	297.859
-20.3414	-6.065000	98.4711
-18.3414	-6.065000	11.3935
-16.3414	-6.065000	456.279
-14.3414	-6.065000	465.29
-12.3414	-6.065000	481.939
-10.3414	-6.065000	503.608
-8.341423	-6.065000	765.931
-6.341423	-6.065000	259.174
-4.341423	-6.065000	11.9099
-2.341423	-6.065000	58.1342
-0.341423	-6.065000	2.252094
1.658577	-6.065000	15.5444
3.658577	-6.065000	187.463
5.658577	-6.065000	188.838
7.658577	-6.065000	181.696
9.658577	-6.065000	12.1033
11.6586	-6.065000	190.893
13.6586	-6.065000	200.031
15.6586	-6.065000	205.383
17.6586	-6.065000	98.1685
19.6586	-6.065000	84.0676
21.6586	-6.065000	127.152
23.6586	-6.065000	124.946
-39.3414	-5.065000	50.911
-37.3414	-5.065000	612.511
-35.3414	-5.065000	482.693
-33.3414	-5.065000	779.542
-31.3414	-5.065000	768.59
-29.3414	-5.065000	617.443
-27.3414	-5.065000	313.77
-25.3414	-5.065000	238.248
-23.3414	-5.065000	596.143
-21.3414	-5.065000	338.271
-19.3414	-5.065000	12.0823
-17.3414	-5.065000	13.4823
-15.3414	-5.065000	405.17
-13.3414	-5.065000	655.331
-11.3414	-5.065000	717.615
-9.341423	-5.065000	688.765
-7.341423	-5.065000	567.227
-5.341423	-5.065000	308.717
-3.341423	-5.065000	5.215853
-1.341423	-5.065000	45.7712
0.658577	-5.065000	117.569
2.658577	-5.065000	26.9642
4.658577	-5.065000	212.738
6.658577	-5.065000	127.325
8.658577	-5.065000	18.853
10.6586	-5.065000	250.641
12.6586	-5.065000	433.275
14.6586	-5.065000	0.000000
16.6586	-5.065000	260.603
18.6586	-5.065000	103.846
20.6586	-5.065000	116.35
22.6586	-5.065000	39.3879
24.6586	-5.065000	34.6758
-38.3414	-4.065000	74.9832
-36.3414	-4.065000	0.000000
-34.3414	-4.065000	709.578
-32.3414	-4.065000	416.434
-30.3414	-4.065000	249.259
-28.3414	-4.065000	323.523
-26.3414	-4.065000	342.192
-24.3414	-4.065000	523.404
-22.3414	-4.065000	436.363
-20.3414	-4.065000	184.961
-18.3414	-4.065000	63.4831
-16.3414	-4.065000	142.321
-14.3414	-4.065000	482.503
-12.3414	-4.065000	445.923
-10.3414	-4.065000	0.000000
-8.341423	-4.065000	444.546
-6.341423	-4.065000	132.308
-4.341423	-4.065000	4.969540
-2.341423	-4.065000	18.6907
-0.341423	-4.065000	233.88
1.658577	-4.065000	67.288
3.658577	-4.065000	29.2701
5.658577	-4.065000	165.474
7.658577	-4.065000	421.391
9.658577	-4.065000	406.584
11.6586	-4.065000	135.658
13.6586	-4.065000	821.689
15.6586	-4.065000	147.621
17.6586	-4.065000	197.999
19.6586	-4.065000	169.272
21.6586	-4.065000	188.459
23.6586	-4.065000	71.3392
-39.3414	-3.065000	11.3613
-37.3414	-3.065000	84.2396
-35.3414	-3.065000	0.000000
-33.3414	-3.065000	298.542
-31.3414	-3.065000	70.8313
-29.3414	-3.065000	26.0798
-27.3414	-3.065000	82.5827
-25.3414	-3.065000	0.000000
-23.3414	-3.065000	687.019
-21.3414	-3.065000	297.344
-19.3414	-3.065000	200.045
-17.3414	-3.065000	281.802
-15.3414	-3.065000	334.962
-13.3414	-3.065000	539.322
-11.3414	-3.065000	80.3513
-9.341423	-3.065000	104.171
-7.341423	-3.065000	44.3897
-5.341423	-3.065000	143.467
-3.341423	-3.065000	43.3887
-1.341423	-3.065000	728.977
0.658577	-3.065000	529.65
2.658577	-3.065000	31.3089
4.658577	-3.065000	25.6219
6.658577	-3.065000	242.261
8.658577	-3.065000	393.985
10.6586	-3.065000	174.584
12.6586	-3.065000	714.22
14.6586	-3.065000	688.894
16.6586	-3.065000	233.033
18.6586	-3.065000	197.458
20.6586	-3.065000	106.55
22.6586	-3.065000	21.651
24.6586	-3.065000	76.7998
-38.3414	-2.065000	171.07
-36.3414	-2.065000	17.8999
-34.3414	-2.065000	65.9392
-32.3414	-2.065000	8.120141
-30.3414	-2.065000	543.296
-28.3414	-2.065000	0.000000
-26.3414	-2.065000	580.505
-24.3414	-2.065000	730.558
-22.3414	-2.065000	395.163
-20.3414	-2.065000	101.579
-18.3414	-2.065000	54.2134
-16.3414	-2.065000	103.101
-14.3414	-2.065000	604.245
-12.3414	-2.065000	0.000000
-10.3414	-2.065000	387.34
-8.341423	-2.065000	82.7432
-6.341423	-2.065000	65.1299
-4.341423	-2.065000	73.7111
-2.341423	-2.065000	548.342
-0.341423	-2.065000	791.467
1.658577	-2.065000	429.837
3.658577	-2.065000	182.665
5.658577	-2.065000	177.505
7.658577	-2.065000	290.446
9.658577	-2.065000	147.775
11.6586	-2.065000	122.141
13.6586	-2.065000	783.835
15.6586	-2.065000	0.000000
17.6586	-2.065000	144.379
19.6586	-2.065000	0.023865
21.6586	-2.065000	4.753697
23.6586	-2.065000	43.8774
-39.3414	-1.065000	2.458948
-37.3414	-1.065000	89.4378
-35.3414	-1.065000	28.1657
-33.3414	-1.065000	154.473
-31.3414	-1.065000	88.284
-29.3414	-1.065000	7.608171
-27.3414	-1.065000	3.643497
-25.3414	-1.065000	535.153
-23.3414	-1.065000	290.214
-21.3414	-1.065000	177.634
-19.3414	-1.065000	66.4736
-17.3414	-1.065000	86.1222
-15.3414	-1.065000	379.533
-13.3414	-1.065000	375.48
-11.3414	-1.065000	214.495
-9.341423	-1.065000	77.7747
-7.341423	-1.065000	86.2164
-5.341423	-1.065000	503.147
-3.341423	-1.065000	100.555
-1.341423	-1.065000	581.743
0.658577	-1.065000	722.436
2.658577	-1.065000	391.654
4.658577	-1.065000	95.4532
6.658577	-1.065000	103.394
8.658577	-1.065000	70.1911
10.6586	-1.065000	150.37
12.6586	-1.065000	398.996
14.6586	-1.065000	716.395
16.6586	-1.065000	156.199
18.6586	-1.065000	50.5254
20.6586	-1.065000	267.654
22.6586	-1.065000	43.2277
24.6586	-1.065000	46.9541
-38.3414	-0.065000	8.528331
-36.3414	-0.065000	12.2912
-34.3414	-0.065000	53.111
-32.3414	-0.065000	31.4915
-30.3414	-0.065000	24.7424
-28.3414	-0.065000	0.000000
-26.3414	-0.065000	43.2648
-24.3414	-0.065000	641.96
-22.3414	-0.065000	85.6121
-20.3414	-0.065000	88.1162
-18.3414	-0.065000	238.574
-16.3414	-0.065000	158.761
-14.3414	-0.065000	550.504
-12.3414	-0.065000	478.627
-10.3414	-0.065000	164.716
-8.341423	-0.065000	118.448
-6.341423	-0.065000	157.725
-4.341423	-0.065000	227.561
-2.341423	-0.065000	707.618
-0.341423	-0.065000	777.696
1.658577	-0.065000	633.134
3.658577	-0.065000	132.839
5.658577	-0.065000	241.656
7.658577	-0.065000	448.484
9.658577	-0.065000	426.365
11.6586	-0.065000	769.5
13.6586	-0.065000	386.085
15.6586	-0.065000	421.222
17.6586	-0.065000	149.723
19.6586	-0.065000	75.6869
21.6586	-0.065000	619.206
23.6586	-0.065000	51.6693
-39.3414	0.935000	8.287875
-37.3414	0.935000	5.992094
-35.3414	0.935000	28.4223
-33.3414	0.935000	78.8642
-31.3414	0.935000	104.339
-29.3414	0.935000	6.145000
-27.3414	0.935000	9.909968
-25.3414	0.935000	685.6
-23.3414	0.935000	245.402
-21.3414	0.935000	374.883
-19.3414	0.935000	320.174
-17.3414	0.935000	113.965
-15.3414	0.935000	107.948
-13.3414	0.935000	501.76
-11.3414	0.935000	488.637
-9.341423	0.935000	153.836
-7.341423	0.935000	66.2026
-5.341423	0.935000	639.812
-3.341423	0.935000	282.149
-1.341423	0.935000	793.278
0.658577	0.935000	688.403
2.658577	0.935000	138.716
4.658577	0.935000	142.042
6.658577	0.935000	375.066
8.658577	0.935000	461.666
10.6586	0.935000	456.489
12.6586	0.935000	571.605
14.6586	0.935000	211.676
16.6586	0.935000	216.727
18.6586	0.935000	286.314
20.6586	0.935000	632.844
22.6586	0.935000	735.996
24.6586	0.935000	73.318
-38.3414	1.935000	20.7229
-36.3414	1.935000	128.404
-34.3414	1.935000	55.2545
-32.3414	1.935000	489.28
-30.3414	1.935000	104.291
-28.3414	1.935000	15.4196
-26.3414	1.935000	443.323
-24.3414	1.935000	40.504
-22.3414	1.935000	556.211
-20.3414	1.935000	671.123
-18.3414	1.935000	19.9768
-16.3414	1.935000	0.000000
-14.3414	1.935000	688.836
-12.3414	1.935000	0.000000
-10.3414	1.935000	560.632
-8.341423	1.935000	335.212
-6.341423	1.935000	197.48
-4.341423	1.935000	724.116
-2.341423	1.935000	679.632
-0.341423	1.935000	707.433
1.658577	1.935000	33.9559
3.658577	1.935000	73.8827
5.658577	1.935000	487.714
7.658577	1.935000	536.355
9.658577	1.935000	688.563
11.6586	1.935000	703.734
13.6586	1.935000	520.909
15.6586	1.935000	220.09
17.6586	1.935000	232.447
19.6586	1.935000	198.71
21.6586	1.935000	587.027
23.6586	1.935000	430.441
-39.3414	2.935000	36.2485
-37.3414	2.935000	227.615
-35.3414	2.935000	119.558
-33.3414	2.935000	61.6952
-31.3414	2.935000	155.353
-29.3414	2.935000	302.847
-27.3414	2.935000	417.72
-25.3414	2.935000	482.115
-23.3414	2.935000	0.000000
-21.3414	2.935000	665.884
-19.3414	2.935000	48.7282
-17.3414	2.935000	16.9057
-15.3414	2.935000	6.721104
-13.3414	2.935000	254.741
-11.3414	2.935000	486.425
-9.341423	2.935000	544.494
-7.341423	2.935000	166.228
-5.341423	2.935000	769.866
-3.341423	2.935000	789.355
-1.341423	2.935000	601.467
0.658577	2.935000	695.554
2.658577	2.935000	152.181
4.658577	2.935000	134.995
6.658577	2.935000	19.8282
8.658577	2.935000	599.032
10.6586	2.935000	739.299
12.6586	2.935000	399.509
14.6586	2.935000	759.425
16.6586	2.935000	112.452
18.6586	2.935000	126.595
20.6586	2.935000	94.2918
22.6586	2.935000	661.332
24.6586	2.935000	0.000000
-38.3414	3.935000	257.417
-36.3414	3.935000	169.165
-34.3414	3.935000	29.6932
-32.3414	3.935000	121.355
-30.3414	3.935000	296.895
-28.3414	3.935000	409.397
-26.3414	3.935000	354.029
-24.3414	3.935000	266.541
-22.3414	3.935000	86.5324
-20.3414	3.935000	630.599
-18.3414	3.935000	432.062
-16.3414	3.935000	22.2737
-14.3414	3.935000	14.4644
-12.3414	3.935000	173.208
-10.3414	3.935000	557.986
-8.341423	3.935000	96.9679
-6.341423	3.935000	179.89
-4.341423	3.935000	118.649
-2.341423	3.935000	859.796
-0.341423	3.935000	745.012
1.658577	3.935000	540.328
3.658577	3.935000	99.9878
5.658577	3.935000	319.242
7.658577	3.935000	368.576
9.658577	3.935000	743.305
11.6586	3.935000	131.83
13.6586	3.935000	261.091
15.6586	3.935000	186.412
17.6586	3.935000	518.73
19.6586	3.935000	787.215
21.6586	3.935000	580.201
23.6586	3.935000	118.156
-39.3414	4.935000	694.015
-37.3414	4.935000	641.285
-35.3414	4.935000	876.018
-33.3414	4.935000	41.9877
-31.3414	4.935000	201.654
-29.3414	4.935000	310.73
-27.3414	4.935000	219.073
-25.3414	4.935000	533.132
-23.3414	4.935000	114.58
-21.3414	4.935000	145.209
-19.3414	4.935000	598.135
-17.3414	4.935000	620.067
-15.3414	4.935000	394.641
-13.3414	4.935000	34.5025
-11.3414	4.935000	283.729
-9.341423	4.935000	385.126
-7.341423	4.935000	173.589
-5.341423	4.935000	30.696
-3.341423	4.935000	630.635
-1.341423	4.935000	673.988
0.658577	4.935000	755.713
2.658577	4.935000	300.112
4.658577	4.935000	87.0804
6.658577	4.935000	276.351
8.658577	4.935000	839.114
10.6586	4.935000	512.664
12.6586	4.935000	417.344
14.6586	4.935000	441.641
16.6586	4.935000	352.472
18.6586	4.935000	780.521
20.6586	4.935000	284.882
22.6586	4.935000	558.651
24.6586	4.935000	27.9047
-38.3414	5.935000	675.15
-36.3414	5.935000	652.849
-34.3414	5.935000	506.318
-32.3414	5.935000	437.103
-30.3414	5.935000	14.786
-28.3414	5.935000	13.0713
-26.3414	5.935000	300.331
-24.3414	5.935000	553.411
-22.3414	5.935000	50.6995
-20.3414	5.935000	221.599
-18.3414	5.935000	539.901
-16.3414	5.935000	582.626
-14.3414	5.935000	406.883
-12.3414	5.935000	125.083
-10.3414	5.935000	608.665
-8.341423	5.935000	349.495
-6.341423	5.935000	230.875
-4.341423	5.935000	17.9135
-2.341423	5.935000	711.89
-0.341423	5.935000	665.568
1.658577	5.935000	755.07
3.658577	5.935000	190.9
5.658577	5.935000	122.168
7.658577	5.935000	142.982
9.658577	5.935000	586.787
11.6586	5.935000	459.841
13.6586	5.935000	212.338
15.6586	5.935000	625.573
17.6586	5.935000	219.819
19.6586	5.935000	600.463
21.6586	5.935000	861.251
23.6586	5.935000	344.541
-39.3414	6.935000	773.985
-37.3414	6.935000	665.496
-35.3414	6.935000	537.412
-33.3414	6.935000	422.714
-31.3414	6.935000	127.967
-29.3414	6.935000	273.255
-27.3414	6.935000	55.088
-25.3414	6.935000	362.42
-23.3414	6.935000	84.5243
-21.3414	6.935000	102.034
-19.3414	6.935000	751.781
-17.3414	6.935000	562.754
-15.3414	6.935000	597.593
-13.3414	6.935000	493.941
-11.3414	6.935000	75.7326
-9.341423	6.935000	174.955
-7.341423	6.935000	162.34
-5.341423	6.935000	96.4997
-3.341423	6.935000	185.923
-1.341423	6.935000	706.322
0.658577	6.935000	722.382
2.658577	6.935000	286.249
4.658577	6.935000	65.0522
6.658577	6.935000	286.711
8.658577	6.935000	130.824
10.6586	6.935000	574.638
12.6586	6.935000	552.386
14.6586	6.935000	64.4472
16.6586	6.935000	241.231
18.6586	6.935000	778.077
20.6586	6.935000	772.639
22.6586	6.935000	227.237
24.6586	6.935000	355.76
-38.3414	7.935000	716.755
-36.3414	7.935000	629.316
-34.3414	7.935000	554.232
-32.3414	7.935000	551.45
-30.3414	7.935000	313.478
-28.3414	7.935000	103.759
-26.3414	7.935000	132.799
-24.3414	7.935000	146.386
-22.3414	7.935000	57.9046
-20.3414	7.935000	169.801
-18.3414	7.935000	372.686
-16.3414	7.935000	423.269
-14.3414	7.935000	398.024
-12.3414	7.935000	626.155
-10.3414	7.935000	95.3117
-8.341423	7.935000	98.7297
-6.341423	7.935000	139
-4.341423	7.935000	144.484
-2.341423	7.935000	546.064
-0.341423	7.935000	720.878
1.658577	7.935000	429.129
3.658577	7.935000	184.327
5.658577	7.935000	100.025
7.658577	7.935000	125.081
9.658577	7.935000	242.172
11.6586	7.935000	320.054
13.6586	7.935000	424.57
15.6586	7.935000	276.365
17.6586	7.935000	289.659
19.6586	7.935000	16.5388
21.6586	7.935000	586.879
23.6586	7.935000	269.641
-39.3414	8.935000	687.116
-37.3414	8.935000	568.078
-35.3414	8.935000	658.266
-33.3414	8.935000	661.678
-31.3414	8.935000	662.203
-29.3414	8.935000	329.392
-27.3414	8.935000	200.125
-25.3414	8.935000	203.663
-23.3414	8.935000	85.128
-21.3414	8.935000	78.0661
-19.3414	8.935000	216.453
-17.3414	8.935000	617.311
-15.3414	8.935000	964.724
-13.3414	8.935000	331.186
-11.3414	8.935000	58.1049
-9.341423	8.935000	91.9328
-7.341423	8.935000	113.999
-5.341423	8.935000	155.637
-3.341423	8.935000	243.275
-1.341423	8.935000	786.417
0.658577	8.935000	728.912
2.658577	8.935000	234.922
4.658577	8.935000	291.649
6.658577	8.935000	131.069
8.658577	8.935000	101.578
10.6586	8.935000	180.571
12.6586	8.935000	333.901
14.6586	8.935000	306.211
16.6586	8.935000	62.929
18.6586	8.935000	13.8232
20.6586	8.935000	4.803925
22.6586	8.935000	26.602
24.6586	8.935000	180.291
-38.3414	9.935000	496.895
-36.3414	9.935000	491.588
-34.3414	9.935000	597.466
-32.3414	9.935000	630.467
-30.3414	9.935000	562.615
-28.3414	9.935000	553.081
-26.3414	9.935000	151.115
-24.3414	9.935000	68.2325
-22.3414	9.935000	176.219
-20.3414	9.935000	183.53
-18.3414	9.935000	233.745
-16.3414	9.935000	597.821
-14.3414	9.935000	677.75
-12.3414	9.935000	182.749
-10.3414	9.935000	89.986
-8.341423	9.935000	106.117
-6.341423	9.935000	816.304
-4.341423	9.935000	0.000000
-2.341423	9.935000	307.811
-0.341423	9.935000	825.892
1.658577	9.935000	182.401
3.658577	9.935000	124.713
5.658577	9.935000	62.3475
7.658577	9.935000	116.799
9.658577	9.935000	202.33
11.6586	9.935000	190.908
13.6586	9.935000	11.6902
15.6586	9.935000	25.645
17.6586	9.935000	0.000000
19.6586	9.935000	2.395608
21.6586	9.935000	219.34
23.6586	9.935000	77.0663
-39.3414	10.935	387.872
-37.3414	10.935	482.948
-35.3414	10.935	557.289
-33.3414	10.935	470.323
-31.3414	10.935	767.412
-29.3414	10.935	627.805
-27.3414	10.935	147.632
-25.3414	10.935	53.2255
-23.3414	10.935	88.3885
-21.3414	10.935	114.627
-19.3414	10.935	368.904
-17.3414	10.935	327.226
-15.3414	10.935	601.688
-13.3414	10.935	399.413
-11.3414	10.935	38.7926
-9.341423	10.935	94.3097
-7.341423	10.935	0.000000
-5.341423	10.935	802.032
-3.341423	10.935	119.871
-1.341423	10.935	0.000000
0.658577	10.935	511.027
2.658577	10.935	166.967
4.658577	10.935	83.6685
6.658577	10.935	99.0465
8.658577	10.935	57.9403
10.6586	10.935	54.8766
12.6586	10.935	184.179
14.6586	10.935	12.3164
16.6586	10.935	2.090991
18.6586	10.935	27.9008
20.6586	10.935	270.302
22.6586	10.935	333.052
24.6586	10.935	57.852
-38.3414	11.935	486.603
-36.3414	11.935	562.36
-34.3414	11.935	460.559
-32.3414	11.935	492.429
-30.3414	11.935	770.545
-28.3414	11.935	700.118
-26.3414	11.935	160.07
-24.3414	11.935	10.9929
-22.3414	11.935	235.505
-20.3414	11.935	152.326
-18.3414	11.935	215.847
-16.3414	11.935	159.484
-14.3414	11.935	545.706
-12.3414	11.935	64.3221
-10.3414	11.935	20.043
-8.341423	11.935	116.333
-6.341423	11.935	135.475
-4.341423	11.935	604.055
-2.341423	11.935	101.849
-0.341423	11.935	762.825
1.658577	11.935	142.588
3.658577	11.935	46.4887
5.658577	11.935	114.534
7.658577	11.935	0.000000
9.658577	11.935	178.027
11.6586	11.935	195.114
13.6586	11.935	82.2972
15.6586	11.935	0.244508
17.6586	11.935	3.013289
19.6586	11.935	4.444345
21.6586	11.935	163.751
23.6586	11.935	323.024
-39.3414	12.935	515.669
-37.3414	12.935	583.406
-35.3414	12.935	571.131
-33.3414	12.935	537.973
-31.3414	12.935	600.221
-29.3414	12.935	805.241
-27.3414	12.935	89.9684
-25.3414	12.935	3.603499
-23.3414	12.935	416.508
-21.3414	12.935	380.874
-19.3414	12.935	519.397
-17.3414	12.935	148.154
-15.3414	12.935	525.258
-13.3414	12.935	261.281
-11.3414	12.935	45.829
-9.341423	12.935	99.1968
-7.341423	12.935	164.49
-5.341423	12.935	198.626
-3.341423	12.935	413.951
-1.341423	12.935	257.122
0.658577	12.935	258.72
2.658577	12.935	186.628
4.658577	12.935	64.7401
6.658577	12.935	731.124
8.658577	12.935	0.000000
10.6586	12.935	214.166
12.6586	12.935	233.13
14.6586	12.935	3.202105
16.6586	12.935	0.000000
18.6586	12.935	8.190636
20.6586	12.935	0.000000
22.6586	12.935	64.3984
24.6586	12.935	62.9287
-38.3414	13.935	648.701
-36.3414	13.935	598.238
-34.3414	13.935	642.626
-32.3414	13.935	462.337
-30.3414	13.935	698.28
-28.3414	13.935	165.159
-26.3414	13.935	129.276
-24.3414	13.935	204.684
-22.3414	13.935	242.376
-20.3414	13.935	304.475
-18.3414	13.935	525.018
-16.3414	13.935	174.52
-14.3414	13.935	792.675
-12.3414	13.935	147.28
-10.3414	13.935	48.8385
-8.341423	13.935	106.421
-6.341423	13.935	302.932
-4.341423	13.935	403.353
-2.341423	13.935	99.3204
-0.341423	13.935	273.037
1.658577	13.935	94.8415
3.658577	13.935	57.2279
5.658577	13.935	15.1946
7.658577	13.935	602.268
9.658577	13.935	222.506
11.6586	13.935	132.886
13.6586	13.935	22.6844
15.6586	13.935	0.000000
17.6586	13.935	13.6231
19.6586	13.935	0.000000
21.6586	13.935	0.000000
23.6586	13.935	24.3136
-39.3414	14.935	761.302
-37.3414	14.935	712.243
-35.3414	14.935	749.405
-33.3414	14.935	445.731
-31.3414	14.935	480.224
-29.3414	14.935	376.021
-27.3414	14.935	165.199
-25.3414	14.935	130.858
-23.3414	14.935	58.9093
-21.3414	14.935	492.152
-19.3414	14.935	347.127
-17.3414	14.935	153.791
-15.3414	14.935	416.989
-13.3414	14.935	498.488
-11.3414	14.935	168.615
-9.341423	14.935	16.1221
-7.341423	14.935	472.753
-5.341423	14.935	146.774
-3.341423	14.935	187.411
-1.341423	14.935	326.874
0.658577	14.935	87.6506
2.658577	14.935	204.195
4.658577	14.935	3.793865
6.658577	14.935	19.2745
8.658577	14.935	182.661
10.6586	14.935	192.291
12.6586	14.935	306.059
14.6586	14.935	10.024
16.6586	14.935	121.096
18.6586	14.935	0.930005
20.6586	14.935	26.8157
22.6586	14.935	0.000000
24.6586	14.935	0.690035
-38.3414	15.935	785.989
-36.3414	15.935	542.531
-34.3414	15.935	485.179
-32.3414	15.935	582.537
-30.3414	15.935	180.619
-28.3414	15.935	204.606
-26.3414	15.935	172.158
-24.3414	15.935	109.309
-22.3414	15.935	10.897
-20.3414	15.935	75.6222
-18.3414	15.935	379.181
-16.3414	15.935	730.672
-14.3414	15.935	803.651
-12.3414	15.935	819.51
-10.3414	15.935	6.981530
-8.341423	15.935	11.2388
-6.341423	15.935	163.049
-4.341423	15.935	44.0204
-2.341423	15.935	125.044
-0.341423	15.935	139.189
1.658577	15.935	263.769
3.658577	15.935	142.641
5.658577	15.935	10.1186
7.658577	15.935	1.066355
9.658577	15.935	293.532
11.6586	15.935	43.3956
13.6586	15.935	83.0394
15.6586	15.935	5.022122
17.6586	15.935	0.000000
19.6586	15.935	0.000000
21.6586	15.935	1.302569
23.6586	15.935	0.000000
24.6586	15.935	0.000000