File: data/derived_data/raman/20170920_Gr-NH2_for_Radisurf/20170920 Gr-NH for Radisurf map 2/Dp pos.txt
#XList		#YList		#IList
-39.3414	-21.065	1620.64
-37.3414	-21.065	1619.15
-35.3414	-21.065	1619.89
-33.3414	-21.065	1612.55
-31.3414	-21.065	1600
-29.3414	-21.065	1600.04
-27.3414	-21.065	1600
-25.3414	-21.065	1618.44
-23.3414	-21.065	1614.29
-21.3414	-21.065	1611.61
-19.3414	-21.065	1619.42
-17.3414	-21.065	1606.01
-15.3414	-21.065	1603.91
-13.3414	-21.065	1600
-11.3414	-21.065	1602.15
-9.341423	-21.065	1600
-7.341423	-21.065	1618.7
-5.341423	-21.065	1616.95
-3.341423	-21.065	1604.56
-1.341423	-21.065	1618.47
0.658577	-21.065	1616.7
2.658577	-21.065	1617.63
4.658577	-21.065	1615.68
6.658577	-21.065	1618.88
8.658577	-21.065	1621.48
10.6586	-21.065	1622.46
12.6586	-21.065	1617.11
14.6586	-21.065	1615.79
16.6586	-21.065	1616.99
18.6586	-21.065	1616.49
20.6586	-21.065	1615.54
22.6586	-21.065	1600
24.6586	-21.065	1626.9
-38.3414	-20.065	1618.34
-36.3414	-20.065	1616.7
-34.3414	-20.065	1616.3
-32.3414	-20.065	1611.8
-30.3414	-20.065	1609.29
-28.3414	-20.065	1617.7
-26.3414	-20.065	1616.12
-24.3414	-20.065	1618.23
-22.3414	-20.065	1608.56
-20.3414	-20.065	1615.87
-18.3414	-20.065	1617.9
-16.3414	-20.065	1602.11
-14.3414	-20.065	1600.88
-12.3414	-20.065	1604.48
-10.3414	-20.065	1619.85
-8.341423	-20.065	1619.35
-6.341423	-20.065	1619.03
-4.341423	-20.065	1608.24
-2.341423	-20.065	1612.44
-0.341423	-20.065	1616.5
1.658577	-20.065	1616.97
3.658577	-20.065	1616.99
5.658577	-20.065	1617.33
7.658577	-20.065	1613.01
9.658577	-20.065	1620.43
11.6586	-20.065	1620.01
13.6586	-20.065	1619.1
15.6586	-20.065	1615.41
17.6586	-20.065	1615.06
19.6586	-20.065	1604.8
21.6586	-20.065	1612.19
23.6586	-20.065	1619.33
-39.3414	-19.065	1613.15
-37.3414	-19.065	1619.49
-35.3414	-19.065	1619.07
-33.3414	-19.065	1617.79
-31.3414	-19.065	1604.43
-29.3414	-19.065	1616.7
-27.3414	-19.065	1617.7
-25.3414	-19.065	1613.69
-23.3414	-19.065	1615.02
-21.3414	-19.065	1618.43
-19.3414	-19.065	1612.08
-17.3414	-19.065	1604.4
-15.3414	-19.065	1601.93
-13.3414	-19.065	1601.45
-11.3414	-19.065	1607.84
-9.341423	-19.065	1618.6
-7.341423	-19.065	1618.85
-5.341423	-19.065	1617.43
-3.341423	-19.065	1609.54
-1.341423	-19.065	1617.96
0.658577	-19.065	1617.3
2.658577	-19.065	1620.1
4.658577	-19.065	1617.56
6.658577	-19.065	1617.5
8.658577	-19.065	1605.42
10.6586	-19.065	1600
12.6586	-19.065	1611.18
14.6586	-19.065	1612.79
16.6586	-19.065	1615.15
18.6586	-19.065	1619.22
20.6586	-19.065	1609.76
22.6586	-19.065	1619.34
24.6586	-19.065	1612.67
-38.3414	-18.065	1612.35
-36.3414	-18.065	1616.92
-34.3414	-18.065	1620.17
-32.3414	-18.065	1610.62
-30.3414	-18.065	1601.55
-28.3414	-18.065	1609.79
-26.3414	-18.065	1600
-24.3414	-18.065	1616.02
-22.3414	-18.065	1617.6
-20.3414	-18.065	1615.99
-18.3414	-18.065	1609.64
-16.3414	-18.065	1600
-14.3414	-18.065	1602.4
-12.3414	-18.065	1600.6
-10.3414	-18.065	1617.31
-8.341423	-18.065	1617.92
-6.341423	-18.065	1615.99
-4.341423	-18.065	1614.9
-2.341423	-18.065	1616.98
-0.341423	-18.065	1615.59
1.658577	-18.065	1620.37
3.658577	-18.065	1618.56
5.658577	-18.065	1616.65
7.658577	-18.065	1603.21
9.658577	-18.065	1600
11.6586	-18.065	1603.78
13.6586	-18.065	1607.7
15.6586	-18.065	1616.51
17.6586	-18.065	1614.88
19.6586	-18.065	1614.78
21.6586	-18.065	1605.62
23.6586	-18.065	1612.32
-39.3414	-17.065	1620.05
-37.3414	-17.065	1604.3
-35.3414	-17.065	1609.13
-33.3414	-17.065	1618.06
-31.3414	-17.065	1617.66
-29.3414	-17.065	1600
-27.3414	-17.065	1615.66
-25.3414	-17.065	1610.96
-23.3414	-17.065	1615.11
-21.3414	-17.065	1612.23
-19.3414	-17.065	1602.74
-17.3414	-17.065	1602.02
-15.3414	-17.065	1603.18
-13.3414	-17.065	1600
-11.3414	-17.065	1610.54
-9.341423	-17.065	1617.39
-7.341423	-17.065	1612.79
-5.341423	-17.065	1607.77
-3.341423	-17.065	1618.97
-1.341423	-17.065	1607.13
0.658577	-17.065	1615.62
2.658577	-17.065	1614.74
4.658577	-17.065	1615.65
6.658577	-17.065	1612.77
8.658577	-17.065	1600.19
10.6586	-17.065	1600
12.6586	-17.065	1604.26
14.6586	-17.065	1618.41
16.6586	-17.065	1607.98
18.6586	-17.065	1600
20.6586	-17.065	1607.25
22.6586	-17.065	1605.42
24.6586	-17.065	1607.47
-38.3414	-16.065	1604.44
-36.3414	-16.065	1603.3
-34.3414	-16.065	1603.09
-32.3414	-16.065	1603.4
-30.3414	-16.065	1600.21
-28.3414	-16.065	1615.44
-26.3414	-16.065	1600
-24.3414	-16.065	1613.67
-22.3414	-16.065	1616.15
-20.3414	-16.065	1614.47
-18.3414	-16.065	1608.05
-16.3414	-16.065	1606.1
-14.3414	-16.065	1604.69
-12.3414	-16.065	1604.5
-10.3414	-16.065	1616.14
-8.341423	-16.065	1618.75
-6.341423	-16.065	1613.66
-4.341423	-16.065	1614.41
-2.341423	-16.065	1619.17
-0.341423	-16.065	1611.6
1.658577	-16.065	1612.18
3.658577	-16.065	1616.85
5.658577	-16.065	1617.2
7.658577	-16.065	1600
9.658577	-16.065	1612.96
11.6586	-16.065	1602.59
13.6586	-16.065	1612.85
15.6586	-16.065	1608.14
17.6586	-16.065	1616.85
19.6586	-16.065	1615.41
21.6586	-16.065	1618.66
23.6586	-16.065	1613.68
-39.3414	-15.065	1617.15
-37.3414	-15.065	1606.06
-35.3414	-15.065	1604.48
-33.3414	-15.065	1603.88
-31.3414	-15.065	1602.4
-29.3414	-15.065	1612.12
-27.3414	-15.065	1601.31
-25.3414	-15.065	1614.54
-23.3414	-15.065	1616.39
-21.3414	-15.065	1614.38
-19.3414	-15.065	1618.31
-17.3414	-15.065	1603.6
-15.3414	-15.065	1600
-13.3414	-15.065	1600.41
-11.3414	-15.065	1613.43
-9.341423	-15.065	1620.21
-7.341423	-15.065	1619.45
-5.341423	-15.065	1615.69
-3.341423	-15.065	1616.6
-1.341423	-15.065	1618.92
0.658577	-15.065	1614.97
2.658577	-15.065	1615.71
4.658577	-15.065	1615.08
6.658577	-15.065	1601.76
8.658577	-15.065	1600
10.6586	-15.065	1600
12.6586	-15.065	1607.48
14.6586	-15.065	1614.14
16.6586	-15.065	1613.99
18.6586	-15.065	1616.94
20.6586	-15.065	1614.82
22.6586	-15.065	1611.94
24.6586	-15.065	1605.92
-38.3414	-14.065	1603.39
-36.3414	-14.065	1603.43
-34.3414	-14.065	1603.6
-32.3414	-14.065	1603.07
-30.3414	-14.065	1600
-28.3414	-14.065	1613.98
-26.3414	-14.065	1608.94
-24.3414	-14.065	1615.66
-22.3414	-14.065	1617.83
-20.3414	-14.065	1611.6
-18.3414	-14.065	1606.36
-16.3414	-14.065	1601.33
-14.3414	-14.065	1602.87
-12.3414	-14.065	1606.57
-10.3414	-14.065	1620.69
-8.341423	-14.065	1621.04
-6.341423	-14.065	1622.9
-4.341423	-14.065	1619.14
-2.341423	-14.065	1615.38
-0.341423	-14.065	1618.16
1.658577	-14.065	1614.46
3.658577	-14.065	1617.65
5.658577	-14.065	1614.9
7.658577	-14.065	1600
9.658577	-14.065	1602.62
11.6586	-14.065	1603.03
13.6586	-14.065	1609.82
15.6586	-14.065	1604.05
17.6586	-14.065	1619.75
19.6586	-14.065	1616.19
21.6586	-14.065	1615.74
23.6586	-14.065	1616.94
-39.3414	-13.065	1601.41
-37.3414	-13.065	1603.9
-35.3414	-13.065	1603.24
-33.3414	-13.065	1603.45
-31.3414	-13.065	1601.57
-29.3414	-13.065	1600.53
-27.3414	-13.065	1606.24
-25.3414	-13.065	1614.69
-23.3414	-13.065	1617.24
-21.3414	-13.065	1611.96
-19.3414	-13.065	1616.29
-17.3414	-13.065	1614.96
-15.3414	-13.065	1614.57
-13.3414	-13.065	1602.69
-11.3414	-13.065	1620.45
-9.341423	-13.065	1619.98
-7.341423	-13.065	1620.13
-5.341423	-13.065	1619.26
-3.341423	-13.065	1614.55
-1.341423	-13.065	1611.71
0.658577	-13.065	1615.02
2.658577	-13.065	1617.87
4.658577	-13.065	1618.08
6.658577	-13.065	1613.75
8.658577	-13.065	1604.08
10.6586	-13.065	1612.87
12.6586	-13.065	1621.09
14.6586	-13.065	1615.04
16.6586	-13.065	1607.36
18.6586	-13.065	1617.56
20.6586	-13.065	1614.55
22.6586	-13.065	1616.25
24.6586	-13.065	1617.94
-38.3414	-12.065	1604.26
-36.3414	-12.065	1603.81
-34.3414	-12.065	1603.52
-32.3414	-12.065	1602.89
-30.3414	-12.065	1602.09
-28.3414	-12.065	1602.22
-26.3414	-12.065	1600.25
-24.3414	-12.065	1600
-22.3414	-12.065	1600
-20.3414	-12.065	1616.4
-18.3414	-12.065	1618.14
-16.3414	-12.065	1617.28
-14.3414	-12.065	1619.8
-12.3414	-12.065	1618.83
-10.3414	-12.065	1619.72
-8.341423	-12.065	1620.12
-6.341423	-12.065	1615.2
-4.341423	-12.065	1617.41
-2.341423	-12.065	1614.33
-0.341423	-12.065	1614.98
1.658577	-12.065	1618.97
3.658577	-12.065	1616.13
5.658577	-12.065	1617.99
7.658577	-12.065	1609.6
9.658577	-12.065	1612.34
11.6586	-12.065	1624.03
13.6586	-12.065	1600
15.6586	-12.065	1616.74
17.6586	-12.065	1615.43
19.6586	-12.065	1617.54
21.6586	-12.065	1617.44
23.6586	-12.065	1614.68
-39.3414	-11.065	1602.51
-37.3414	-11.065	1604.99
-35.3414	-11.065	1600
-33.3414	-11.065	1604.29
-31.3414	-11.065	1602.55
-29.3414	-11.065	1603.37
-27.3414	-11.065	1604.62
-25.3414	-11.065	1607.45
-23.3414	-11.065	1611.46
-21.3414	-11.065	1611.59
-19.3414	-11.065	1614.77
-17.3414	-11.065	1617.85
-15.3414	-11.065	1615.15
-13.3414	-11.065	1620.07
-11.3414	-11.065	1619.87
-9.341423	-11.065	1620.18
-7.341423	-11.065	1613.3
-5.341423	-11.065	1614.23
-3.341423	-11.065	1616.56
-1.341423	-11.065	1612.36
0.658577	-11.065	1607.7
2.658577	-11.065	1615.86
4.658577	-11.065	1617.86
6.658577	-11.065	1616.11
8.658577	-11.065	1615.77
10.6586	-11.065	1617.34
12.6586	-11.065	1616.76
14.6586	-11.065	1617.35
16.6586	-11.065	1614.45
18.6586	-11.065	1614.31
20.6586	-11.065	1609.94
22.6586	-11.065	1615.21
24.6586	-11.065	1614.25
-38.3414	-10.065	1603.62
-36.3414	-10.065	1602.24
-34.3414	-10.065	1601.51
-32.3414	-10.065	1603.81
-30.3414	-10.065	1603.39
-28.3414	-10.065	1601.31
-26.3414	-10.065	1604.58
-24.3414	-10.065	1613.06
-22.3414	-10.065	1620.75
-20.3414	-10.065	1612.07
-18.3414	-10.065	1620.28
-16.3414	-10.065	1618.67
-14.3414	-10.065	1605.12
-12.3414	-10.065	1601.38
-10.3414	-10.065	1605.66
-8.341423	-10.065	1614.47
-6.341423	-10.065	1617.07
-4.341423	-10.065	1617.7
-2.341423	-10.065	1613.69
-0.341423	-10.065	1614.29
1.658577	-10.065	1616.19
3.658577	-10.065	1600
5.658577	-10.065	1616.63
7.658577	-10.065	1608.36
9.658577	-10.065	1616.14
11.6586	-10.065	1600
13.6586	-10.065	1615.89
15.6586	-10.065	1614.46
17.6586	-10.065	1616.7
19.6586	-10.065	1600
21.6586	-10.065	1617.42
23.6586	-10.065	1616.62
-39.3414	-9.065000	1604.2
-37.3414	-9.065000	1603
-35.3414	-9.065000	1604.6
-33.3414	-9.065000	1603.58
-31.3414	-9.065000	1604.17
-29.3414	-9.065000	1602.43
-27.3414	-9.065000	1603.13
-25.3414	-9.065000	1608.54
-23.3414	-9.065000	1612.69
-21.3414	-9.065000	1625.47
-19.3414	-9.065000	1617.08
-17.3414	-9.065000	1617.27
-15.3414	-9.065000	1640
-13.3414	-9.065000	1600
-11.3414	-9.065000	1605.29
-9.341423	-9.065000	1605.33
-7.341423	-9.065000	1616.41
-5.341423	-9.065000	1613.86
-3.341423	-9.065000	1618.84
-1.341423	-9.065000	1618.05
0.658577	-9.065000	1610.77
2.658577	-9.065000	1618.56
4.658577	-9.065000	1618.5
6.658577	-9.065000	1608.14
8.658577	-9.065000	1617.63
10.6586	-9.065000	1600
12.6586	-9.065000	1614.26
14.6586	-9.065000	1616.86
16.6586	-9.065000	1618.77
18.6586	-9.065000	1600
20.6586	-9.065000	1600
22.6586	-9.065000	1615.93
24.6586	-9.065000	1612.59
-38.3414	-8.065000	1601.47
-36.3414	-8.065000	1603.05
-34.3414	-8.065000	1603.82
-32.3414	-8.065000	1604.25
-30.3414	-8.065000	1601.28
-28.3414	-8.065000	1603.08
-26.3414	-8.065000	1606.36
-24.3414	-8.065000	1615.2
-22.3414	-8.065000	1615.8
-20.3414	-8.065000	1600
-18.3414	-8.065000	1614.02
-16.3414	-8.065000	1602.1
-14.3414	-8.065000	1607.36
-12.3414	-8.065000	1614.5
-10.3414	-8.065000	1600
-8.341423	-8.065000	1603.69
-6.341423	-8.065000	1608.58
-4.341423	-8.065000	1612.36
-2.341423	-8.065000	1619.32
-0.341423	-8.065000	1612.59
1.658577	-8.065000	1613.16
3.658577	-8.065000	1615.24
5.658577	-8.065000	1607.61
7.658577	-8.065000	1604.77
9.658577	-8.065000	1619.88
11.6586	-8.065000	1617.94
13.6586	-8.065000	1615.59
15.6586	-8.065000	1612.48
17.6586	-8.065000	1616.53
19.6586	-8.065000	1600
21.6586	-8.065000	1600
23.6586	-8.065000	1617.08
-39.3414	-7.065000	1603.06
-37.3414	-7.065000	1603.54
-35.3414	-7.065000	1604.97
-33.3414	-7.065000	1604.12
-31.3414	-7.065000	1604.63
-29.3414	-7.065000	1602.05
-27.3414	-7.065000	1609.3
-25.3414	-7.065000	1605.47
-23.3414	-7.065000	1617.94
-21.3414	-7.065000	1606.77
-19.3414	-7.065000	1609.72
-17.3414	-7.065000	1604.75
-15.3414	-7.065000	1613.93
-13.3414	-7.065000	1600
-11.3414	-7.065000	1600.7
-9.341423	-7.065000	1604.52
-7.341423	-7.065000	1610.63
-5.341423	-7.065000	1609.4
-3.341423	-7.065000	1609.56
-1.341423	-7.065000	1619.59
0.658577	-7.065000	1616.48
2.658577	-7.065000	1616.31
4.658577	-7.065000	1617.44
6.658577	-7.065000	1602.67
8.658577	-7.065000	1614.52
10.6586	-7.065000	1612.71
12.6586	-7.065000	1616.93
14.6586	-7.065000	1601.28
16.6586	-7.065000	1617.33
18.6586	-7.065000	1617.61
20.6586	-7.065000	1617.56
22.6586	-7.065000	1616.63
24.6586	-7.065000	1612.61
-38.3414	-6.065000	1601.5
-36.3414	-6.065000	1604.44
-34.3414	-6.065000	1603.92
-32.3414	-6.065000	1604.18
-30.3414	-6.065000	1603.12
-28.3414	-6.065000	1604.14
-26.3414	-6.065000	1605.81
-24.3414	-6.065000	1606
-22.3414	-6.065000	1613.99
-20.3414	-6.065000	1617.03
-18.3414	-6.065000	1615.23
-16.3414	-6.065000	1602.35
-14.3414	-6.065000	1601.31
-12.3414	-6.065000	1600
-10.3414	-6.065000	1603.54
-8.341423	-6.065000	1605.03
-6.341423	-6.065000	1603.84
-4.341423	-6.065000	1612.25
-2.341423	-6.065000	1621.16
-0.341423	-6.065000	1607.13
1.658577	-6.065000	1622.36
3.658577	-6.065000	1615.33
5.658577	-6.065000	1617.13
7.658577	-6.065000	1612.49
9.658577	-6.065000	1614.87
11.6586	-6.065000	1612.8
13.6586	-6.065000	1617.74
15.6586	-6.065000	1615.12
17.6586	-6.065000	1617.59
19.6586	-6.065000	1617.97
21.6586	-6.065000	1617.16
23.6586	-6.065000	1618.96
-39.3414	-5.065000	1605.61
-37.3414	-5.065000	1601.99
-35.3414	-5.065000	1602.19
-33.3414	-5.065000	1604.5
-31.3414	-5.065000	1604.96
-29.3414	-5.065000	1605.9
-27.3414	-5.065000	1612.54
-25.3414	-5.065000	1612.8
-23.3414	-5.065000	1605.43
-21.3414	-5.065000	1609.19
-19.3414	-5.065000	1621.26
-17.3414	-5.065000	1611.36
-15.3414	-5.065000	1601.97
-13.3414	-5.065000	1601.81
-11.3414	-5.065000	1603.9
-9.341423	-5.065000	1604.35
-7.341423	-5.065000	1601.22
-5.341423	-5.065000	1606.94
-3.341423	-5.065000	1624.29
-1.341423	-5.065000	1612.96
0.658577	-5.065000	1615.32
2.658577	-5.065000	1609.18
4.658577	-5.065000	1611.87
6.658577	-5.065000	1616.39
8.658577	-5.065000	1616.97
10.6586	-5.065000	1614.21
12.6586	-5.065000	1607.97
14.6586	-5.065000	1601.67
16.6586	-5.065000	1614.18
18.6586	-5.065000	1616.92
20.6586	-5.065000	1616.78
22.6586	-5.065000	1615.85
24.6586	-5.065000	1617.98
-38.3414	-4.065000	1607.93
-36.3414	-4.065000	1633.73
-34.3414	-4.065000	1601.51
-32.3414	-4.065000	1606.24
-30.3414	-4.065000	1609.25
-28.3414	-4.065000	1604.02
-26.3414	-4.065000	1610.2
-24.3414	-4.065000	1607.36
-22.3414	-4.065000	1603.21
-20.3414	-4.065000	1614.27
-18.3414	-4.065000	1607.69
-16.3414	-4.065000	1608.8
-14.3414	-4.065000	1602.05
-12.3414	-4.065000	1600
-10.3414	-4.065000	1619.42
-8.341423	-4.065000	1600
-6.341423	-4.065000	1612.93
-4.341423	-4.065000	1625.3
-2.341423	-4.065000	1600.27
-0.341423	-4.065000	1605.93
1.658577	-4.065000	1619
3.658577	-4.065000	1629.82
5.658577	-4.065000	1613.88
7.658577	-4.065000	1607.43
9.658577	-4.065000	1606.91
11.6586	-4.065000	1616.86
13.6586	-4.065000	1606.46
15.6586	-4.065000	1604.87
17.6586	-4.065000	1617.84
19.6586	-4.065000	1616.34
21.6586	-4.065000	1616.03
23.6586	-4.065000	1616.09
-39.3414	-3.065000	1623.46
-37.3414	-3.065000	1616.02
-35.3414	-3.065000	1613.17
-33.3414	-3.065000	1610.05
-31.3414	-3.065000	1609.88
-29.3414	-3.065000	1611.19
-27.3414	-3.065000	1613.32
-25.3414	-3.065000	1611.84
-23.3414	-3.065000	1603.4
-21.3414	-3.065000	1614.36
-19.3414	-3.065000	1615.06
-17.3414	-3.065000	1610.79
-15.3414	-3.065000	1606.75
-13.3414	-3.065000	1600.42
-11.3414	-3.065000	1616.84
-9.341423	-3.065000	1616.55
-7.341423	-3.065000	1616.37
-5.341423	-3.065000	1612.83
-3.341423	-3.065000	1611.54
-1.341423	-3.065000	1602.54
0.658577	-3.065000	1606.21
2.658577	-3.065000	1612.26
4.658577	-3.065000	1612.47
6.658577	-3.065000	1616.46
8.658577	-3.065000	1606.2
10.6586	-3.065000	1613.32
12.6586	-3.065000	1606.25
14.6586	-3.065000	1607.16
16.6586	-3.065000	1615.68
18.6586	-3.065000	1615.61
20.6586	-3.065000	1618.4
22.6586	-3.065000	1622.58
24.6586	-3.065000	1618.98
-38.3414	-2.065000	1607.52
-36.3414	-2.065000	1617.07
-34.3414	-2.065000	1613.28
-32.3414	-2.065000	1618.75
-30.3414	-2.065000	1601.3
-28.3414	-2.065000	1618.7
-26.3414	-2.065000	1601.07
-24.3414	-2.065000	1600
-22.3414	-2.065000	1606.32
-20.3414	-2.065000	1613.64
-18.3414	-2.065000	1604.47
-16.3414	-2.065000	1618.37
-14.3414	-2.065000	1603.23
-12.3414	-2.065000	1633.18
-10.3414	-2.065000	1603.97
-8.341423	-2.065000	1616.36
-6.341423	-2.065000	1618.13
-4.341423	-2.065000	1616.92
-2.341423	-2.065000	1600.7
-0.341423	-2.065000	1602.96
1.658577	-2.065000	1604.67
3.658577	-2.065000	1607.08
5.658577	-2.065000	1615.67
7.658577	-2.065000	1612.54
9.658577	-2.065000	1611.81
11.6586	-2.065000	1619.87
13.6586	-2.065000	1603.01
15.6586	-2.065000	1600.08
17.6586	-2.065000	1619.26
19.6586	-2.065000	1608.58
21.6586	-2.065000	1610.84
23.6586	-2.065000	1619.62
-39.3414	-1.065000	1610.89
-37.3414	-1.065000	1613.16
-35.3414	-1.065000	1614.55
-33.3414	-1.065000	1614.42
-31.3414	-1.065000	1615.77
-29.3414	-1.065000	1621.61
-27.3414	-1.065000	1617.53
-25.3414	-1.065000	1600
-23.3414	-1.065000	1604.79
-21.3414	-1.065000	1604.97
-19.3414	-1.065000	1600
-17.3414	-1.065000	1616.92
-15.3414	-1.065000	1609.07
-13.3414	-1.065000	1600
-11.3414	-1.065000	1607.71
-9.341423	-1.065000	1617.25
-7.341423	-1.065000	1615.94
-5.341423	-1.065000	1601.78
-3.341423	-1.065000	1616.93
-1.341423	-1.065000	1604.16
0.658577	-1.065000	1600.92
2.658577	-1.065000	1608.88
4.658577	-1.065000	1619.22
6.658577	-1.065000	1610.08
8.658577	-1.065000	1613.96
10.6586	-1.065000	1619.49
12.6586	-1.065000	1608.08
14.6586	-1.065000	1603.85
16.6586	-1.065000	1616.6
18.6586	-1.065000	1615.92
20.6586	-1.065000	1601.21
22.6586	-1.065000	1619
24.6586	-1.065000	1619.14
-38.3414	-0.065000	1621.68
-36.3414	-0.065000	1617.45
-34.3414	-0.065000	1618.02
-32.3414	-0.065000	1619.33
-30.3414	-0.065000	1613.33
-28.3414	-0.065000	1619.91
-26.3414	-0.065000	1612.13
-24.3414	-0.065000	1600
-22.3414	-0.065000	1608.28
-20.3414	-0.065000	1608.6
-18.3414	-0.065000	1613.38
-16.3414	-0.065000	1615.89
-14.3414	-0.065000	1600.77
-12.3414	-0.065000	1602.3
-10.3414	-0.065000	1611.23
-8.341423	-0.065000	1616.85
-6.341423	-0.065000	1613.82
-4.341423	-0.065000	1612.01
-2.341423	-0.065000	1602.17
-0.341423	-0.065000	1602.62
1.658577	-0.065000	1605.67
3.658577	-0.065000	1618.66
5.658577	-0.065000	1613.92
7.658577	-0.065000	1603.42
9.658577	-0.065000	1608.11
11.6586	-0.065000	1606.23
13.6586	-0.065000	1612.27
15.6586	-0.065000	1600
17.6586	-0.065000	1615.71
19.6586	-0.065000	1604.41
21.6586	-0.065000	1600.58
23.6586	-0.065000	1618.32
-39.3414	0.935000	1600
-37.3414	0.935000	1623.75
-35.3414	0.935000	1619.05
-33.3414	0.935000	1613.72
-31.3414	0.935000	1616.56
-29.3414	0.935000	1622.59
-27.3414	0.935000	1614.08
-25.3414	0.935000	1604.52
-23.3414	0.935000	1613.19
-21.3414	0.935000	1604.99
-19.3414	0.935000	1610.46
-17.3414	0.935000	1616.39
-15.3414	0.935000	1609.7
-13.3414	0.935000	1600
-11.3414	0.935000	1601.41
-9.341423	0.935000	1613.02
-7.341423	0.935000	1615.87
-5.341423	0.935000	1605.15
-3.341423	0.935000	1604.48
-1.341423	0.935000	1603.31
0.658577	0.935000	1602.35
2.658577	0.935000	1618.41
4.658577	0.935000	1615.64
6.658577	0.935000	1610.07
8.658577	0.935000	1609
10.6586	0.935000	1605.94
12.6586	0.935000	1608.24
14.6586	0.935000	1609.76
16.6586	0.935000	1608.69
18.6586	0.935000	1606.11
20.6586	0.935000	1601.08
22.6586	0.935000	1602.18
24.6586	0.935000	1621.46
-38.3414	1.935000	1613.85
-36.3414	1.935000	1614.5
-34.3414	1.935000	1616.69
-32.3414	1.935000	1607.7
-30.3414	1.935000	1617.61
-28.3414	1.935000	1607.75
-26.3414	1.935000	1603.42
-24.3414	1.935000	1619.98
-22.3414	1.935000	1600
-20.3414	1.935000	1602.73
-18.3414	1.935000	1616.91
-16.3414	1.935000	1620.6
-14.3414	1.935000	1606.8
-12.3414	1.935000	1604.33
-10.3414	1.935000	1600
-8.341423	1.935000	1600
-6.341423	1.935000	1612.15
-4.341423	1.935000	1603.93
-2.341423	1.935000	1601.21
-0.341423	1.935000	1601.98
1.658577	1.935000	1618.48
3.658577	1.935000	1619.36
5.658577	1.935000	1605.85
7.658577	1.935000	1604.16
9.658577	1.935000	1601.8
11.6586	1.935000	1600
13.6586	1.935000	1608.83
15.6586	1.935000	1612.47
17.6586	1.935000	1612.53
19.6586	1.935000	1608.36
21.6586	1.935000	1600.06
23.6586	1.935000	1609.07
-39.3414	2.935000	1611.09
-37.3414	2.935000	1610.38
-35.3414	2.935000	1614.9
-33.3414	2.935000	1615.79
-31.3414	2.935000	1620.36
-29.3414	2.935000	1611.29
-27.3414	2.935000	1607.21
-25.3414	2.935000	1608.42
-23.3414	2.935000	1619.19
-21.3414	2.935000	1600.42
-19.3414	2.935000	1612.74
-17.3414	2.935000	1602.45
-15.3414	2.935000	1619.15
-13.3414	2.935000	1606.68
-11.3414	2.935000	1606.47
-9.341423	2.935000	1602.05
-7.341423	2.935000	1612.72
-5.341423	2.935000	1600.2
-3.341423	2.935000	1603.33
-1.341423	2.935000	1605.16
0.658577	2.935000	1601.8
2.658577	2.935000	1617.9
4.658577	2.935000	1616.45
6.658577	2.935000	1618.91
8.658577	2.935000	1603.75
10.6586	2.935000	1600.66
12.6586	2.935000	1600
14.6586	2.935000	1606.22
16.6586	2.935000	1614.8
18.6586	2.935000	1605.23
20.6586	2.935000	1608.59
22.6586	2.935000	1601.49
24.6586	2.935000	1626.9
-38.3414	3.935000	1610.48
-36.3414	3.935000	1616.29
-34.3414	3.935000	1620.39
-32.3414	3.935000	1615.53
-30.3414	3.935000	1611.97
-28.3414	3.935000	1610.72
-26.3414	3.935000	1612.73
-24.3414	3.935000	1600
-22.3414	3.935000	1618.73
-20.3414	3.935000	1606.09
-18.3414	3.935000	1603.07
-16.3414	3.935000	1605.49
-14.3414	3.935000	1614.8
-12.3414	3.935000	1616.66
-10.3414	3.935000	1610.23
-8.341423	3.935000	1615.72
-6.341423	3.935000	1607.93
-4.341423	3.935000	1604.17
-2.341423	3.935000	1602.98
-0.341423	3.935000	1602.48
1.658577	3.935000	1608.65
3.658577	3.935000	1614.71
5.658577	3.935000	1613.59
7.658577	3.935000	1604.37
9.658577	3.935000	1603.21
11.6586	3.935000	1614
13.6586	3.935000	1610.57
15.6586	3.935000	1615.1
17.6586	3.935000	1600.18
19.6586	3.935000	1603.63
21.6586	3.935000	1605.83
23.6586	3.935000	1612.61
-39.3414	4.935000	1604.1
-37.3414	4.935000	1606.82
-35.3414	4.935000	1603.78
-33.3414	4.935000	1615.11
-31.3414	4.935000	1612.17
-29.3414	4.935000	1610.57
-27.3414	4.935000	1611.45
-25.3414	4.935000	1605.29
-23.3414	4.935000	1616.53
-21.3414	4.935000	1617.01
-19.3414	4.935000	1600
-17.3414	4.935000	1600
-15.3414	4.935000	1607.19
-13.3414	4.935000	1619.49
-11.3414	4.935000	1612.94
-9.341423	4.935000	1611.34
-7.341423	4.935000	1615.03
-5.341423	4.935000	1609.38
-3.341423	4.935000	1603.22
-1.341423	4.935000	1600.33
0.658577	4.935000	1602.41
2.658577	4.935000	1609.55
4.658577	4.935000	1616
6.658577	4.935000	1614.38
8.658577	4.935000	1606.39
10.6586	4.935000	1600
12.6586	4.935000	1600
14.6586	4.935000	1609.33
16.6586	4.935000	1612.87
18.6586	4.935000	1603.49
20.6586	4.935000	1612.32
22.6586	4.935000	1604.69
24.6586	4.935000	1613.78
-38.3414	5.935000	1601.89
-36.3414	5.935000	1603.37
-34.3414	5.935000	1600.05
-32.3414	5.935000	1602.32
-30.3414	5.935000	1611.65
-28.3414	5.935000	1610.67
-26.3414	5.935000	1611.08
-24.3414	5.935000	1600
-22.3414	5.935000	1617.65
-20.3414	5.935000	1601.44
-18.3414	5.935000	1600
-16.3414	5.935000	1600
-14.3414	5.935000	1606.98
-12.3414	5.935000	1603.01
-10.3414	5.935000	1606.54
-8.341423	5.935000	1610.3
-6.341423	5.935000	1614.42
-4.341423	5.935000	1621.54
-2.341423	5.935000	1601.02
-0.341423	5.935000	1602.44
1.658577	5.935000	1603.89
3.658577	5.935000	1614.66
5.658577	5.935000	1613.73
7.658577	5.935000	1618.06
9.658577	5.935000	1609.95
11.6586	5.935000	1608.87
13.6586	5.935000	1613.85
15.6586	5.935000	1607.37
17.6586	5.935000	1601.26
19.6586	5.935000	1603.6
21.6586	5.935000	1605.43
23.6586	5.935000	1600
-39.3414	6.935000	1603.62
-37.3414	6.935000	1603.7
-35.3414	6.935000	1602.83
-33.3414	6.935000	1600
-31.3414	6.935000	1610.85
-29.3414	6.935000	1606.69
-27.3414	6.935000	1618.29
-25.3414	6.935000	1608.89
-23.3414	6.935000	1613.84
-21.3414	6.935000	1616.46
-19.3414	6.935000	1601.45
-17.3414	6.935000	1600
-15.3414	6.935000	1606.32
-13.3414	6.935000	1600
-11.3414	6.935000	1617.65
-9.341423	6.935000	1618.04
-7.341423	6.935000	1615.81
-5.341423	6.935000	1613.13
-3.341423	6.935000	1612.78
-1.341423	6.935000	1602.7
0.658577	6.935000	1602.18
2.658577	6.935000	1610.23
4.658577	6.935000	1613.07
6.658577	6.935000	1614.1
8.658577	6.935000	1617.49
10.6586	6.935000	1607.31
12.6586	6.935000	1608.19
14.6586	6.935000	1613.79
16.6586	6.935000	1607.67
18.6586	6.935000	1601.74
20.6586	6.935000	1607.56
22.6586	6.935000	1606.22
24.6586	6.935000	1600
-38.3414	7.935000	1603.6
-36.3414	7.935000	1604.33
-34.3414	7.935000	1601.3
-32.3414	7.935000	1600.4
-30.3414	7.935000	1610.17
-28.3414	7.935000	1615.41
-26.3414	7.935000	1619.38
-24.3414	7.935000	1615.87
-22.3414	7.935000	1618.44
-20.3414	7.935000	1613.89
-18.3414	7.935000	1610.79
-16.3414	7.935000	1608.63
-14.3414	7.935000	1600
-12.3414	7.935000	1602.35
-10.3414	7.935000	1619.64
-8.341423	7.935000	1619.25
-6.341423	7.935000	1615.02
-4.341423	7.935000	1611.68
-2.341423	7.935000	1605.68
-0.341423	7.935000	1601.42
1.658577	7.935000	1610.98
3.658577	7.935000	1615.97
5.658577	7.935000	1618.75
7.658577	7.935000	1617.2
9.658577	7.935000	1615.91
11.6586	7.935000	1609.94
13.6586	7.935000	1609.15
15.6586	7.935000	1610.37
17.6586	7.935000	1611.86
19.6586	7.935000	1612.44
21.6586	7.935000	1607.92
23.6586	7.935000	1611.51
-39.3414	8.935000	1605.22
-37.3414	8.935000	1603.2
-35.3414	8.935000	1604.62
-33.3414	8.935000	1601.99
-31.3414	8.935000	1601.9
-29.3414	8.935000	1610.54
-27.3414	8.935000	1617.06
-25.3414	8.935000	1615.75
-23.3414	8.935000	1618.42
-21.3414	8.935000	1617.76
-19.3414	8.935000	1615.86
-17.3414	8.935000	1602.03
-15.3414	8.935000	1605.2
-13.3414	8.935000	1610.64
-11.3414	8.935000	1617.84
-9.341423	8.935000	1621.46
-7.341423	8.935000	1620.24
-5.341423	8.935000	1618.34
-3.341423	8.935000	1614.68
-1.341423	8.935000	1601.91
0.658577	8.935000	1604.63
2.658577	8.935000	1611.14
4.658577	8.935000	1615.29
6.658577	8.935000	1600
8.658577	8.935000	1616.99
10.6586	8.935000	1618.2
12.6586	8.935000	1613.57
14.6586	8.935000	1609.13
16.6586	8.935000	1603.85
18.6586	8.935000	1618.62
20.6586	8.935000	1609.74
22.6586	8.935000	1616.44
24.6586	8.935000	1610.55
-38.3414	9.935000	1603.59
-36.3414	9.935000	1603.96
-34.3414	9.935000	1603.25
-32.3414	9.935000	1604.04
-30.3414	9.935000	1600.56
-28.3414	9.935000	1607.31
-26.3414	9.935000	1615.78
-24.3414	9.935000	1613.1
-22.3414	9.935000	1618.18
-20.3414	9.935000	1614.21
-18.3414	9.935000	1616.34
-16.3414	9.935000	1606.58
-14.3414	9.935000	1604.81
-12.3414	9.935000	1610.38
-10.3414	9.935000	1620.98
-8.341423	9.935000	1619.97
-6.341423	9.935000	1603.49
-4.341423	9.935000	1614.39
-2.341423	9.935000	1611.59
-0.341423	9.935000	1605.82
1.658577	9.935000	1611.41
3.658577	9.935000	1617.76
5.658577	9.935000	1617.03
7.658577	9.935000	1617.55
9.658577	9.935000	1616.5
11.6586	9.935000	1615.89
13.6586	9.935000	1612.17
15.6586	9.935000	1618.95
17.6586	9.935000	1602.31
19.6586	9.935000	1611.6
21.6586	9.935000	1609.91
23.6586	9.935000	1619.8
-39.3414	10.935	1603.37
-37.3414	10.935	1602.97
-35.3414	10.935	1603.44
-33.3414	10.935	1601.51
-31.3414	10.935	1604.11
-29.3414	10.935	1602.78
-27.3414	10.935	1609.88
-25.3414	10.935	1613.57
-23.3414	10.935	1600.58
-21.3414	10.935	1615.99
-19.3414	10.935	1612.06
-17.3414	10.935	1608.75
-15.3414	10.935	1607.95
-13.3414	10.935	1609.52
-11.3414	10.935	1613.32
-9.341423	10.935	1619.45
-7.341423	10.935	1627.96
-5.341423	10.935	1601.64
-3.341423	10.935	1606.2
-1.341423	10.935	1603.41
0.658577	10.935	1609.04
2.658577	10.935	1618.04
4.658577	10.935	1613.72
6.658577	10.935	1615.48
8.658577	10.935	1609.99
10.6586	10.935	1612.1
12.6586	10.935	1614.17
14.6586	10.935	1618.65
16.6586	10.935	1640
18.6586	10.935	1619.77
20.6586	10.935	1606.89
22.6586	10.935	1603.04
24.6586	10.935	1612.59
-38.3414	11.935	1601.38
-36.3414	11.935	1602.5
-34.3414	11.935	1601.11
-32.3414	11.935	1601.2
-30.3414	11.935	1600.5
-28.3414	11.935	1604.65
-26.3414	11.935	1615.8
-24.3414	11.935	1617.53
-22.3414	11.935	1614.58
-20.3414	11.935	1613.79
-18.3414	11.935	1613.65
-16.3414	11.935	1617.94
-14.3414	11.935	1606.71
-12.3414	11.935	1614.71
-10.3414	11.935	1610.34
-8.341423	11.935	1619.43
-6.341423	11.935	1617.41
-4.341423	11.935	1600
-2.341423	11.935	1610.65
-0.341423	11.935	1604.92
1.658577	11.935	1613.4
3.658577	11.935	1615.79
5.658577	11.935	1617.31
7.658577	11.935	1640
9.658577	11.935	1615.42
11.6586	11.935	1614.85
13.6586	11.935	1617.49
15.6586	11.935	1600
17.6586	11.935	1640
19.6586	11.935	1640
21.6586	11.935	1609.58
23.6586	11.935	1607.51
-39.3414	12.935	1601.1
-37.3414	12.935	1600.25
-35.3414	12.935	1601.2
-33.3414	12.935	1602.87
-31.3414	12.935	1601.56
-29.3414	12.935	1604.52
-27.3414	12.935	1616.62
-25.3414	12.935	1621.21
-23.3414	12.935	1609.04
-21.3414	12.935	1605.77
-19.3414	12.935	1604.32
-17.3414	12.935	1620.61
-15.3414	12.935	1609.23
-13.3414	12.935	1613.27
-11.3414	12.935	1615.8
-9.341423	12.935	1616.2
-7.341423	12.935	1616.28
-5.341423	12.935	1612.08
-3.341423	12.935	1610.61
-1.341423	12.935	1615.26
0.658577	12.935	1612.2
2.658577	12.935	1614.84
4.658577	12.935	1614.34
6.658577	12.935	1603.01
8.658577	12.935	1607.37
10.6586	12.935	1611.64
12.6586	12.935	1614.41
14.6586	12.935	1618.88
16.6586	12.935	1617.51
18.6586	12.935	1632.48
20.6586	12.935	1619.59
22.6586	12.935	1611.66
24.6586	12.935	1611
-38.3414	13.935	1601.97
-36.3414	13.935	1603.18
-34.3414	13.935	1603.11
-32.3414	13.935	1602.97
-30.3414	13.935	1602.24
-28.3414	13.935	1617.7
-26.3414	13.935	1620.55
-24.3414	13.935	1604.85
-22.3414	13.935	1615.11
-20.3414	13.935	1603.75
-18.3414	13.935	1601.44
-16.3414	13.935	1618.19
-14.3414	13.935	1603.72
-12.3414	13.935	1614.94
-10.3414	13.935	1608.89
-8.341423	13.935	1618.44
-6.341423	13.935	1602.47
-4.341423	13.935	1605.4
-2.341423	13.935	1618.98
-0.341423	13.935	1606.53
1.658577	13.935	1614.66
3.658577	13.935	1610
5.658577	13.935	1617.18
7.658577	13.935	1600.57
9.658577	13.935	1614.12
11.6586	13.935	1617.32
13.6586	13.935	1616.41
15.6586	13.935	1615.01
17.6586	13.935	1618.51
19.6586	13.935	1619.39
21.6586	13.935	1640
23.6586	13.935	1602.29
-39.3414	14.935	1604.04
-37.3414	14.935	1604.07
-35.3414	14.935	1603.65
-33.3414	14.935	1605.17
-31.3414	14.935	1604.93
-29.3414	14.935	1600
-27.3414	14.935	1617.42
-25.3414	14.935	1617.53
-23.3414	14.935	1612.41
-21.3414	14.935	1606.8
-19.3414	14.935	1600
-17.3414	14.935	1614.06
-15.3414	14.935	1608.18
-13.3414	14.935	1603.25
-11.3414	14.935	1603.75
-9.341423	14.935	1621.64
-7.341423	14.935	1606.77
-5.341423	14.935	1617.02
-3.341423	14.935	1608.64
-1.341423	14.935	1609.39
0.658577	14.935	1618
2.658577	14.935	1614.55
4.658577	14.935	1629.84
6.658577	14.935	1618.33
8.658577	14.935	1613.84
10.6586	14.935	1616.25
12.6586	14.935	1609.55
14.6586	14.935	1618.55
16.6586	14.935	1608.47
18.6586	14.935	1615.7
20.6586	14.935	1632.64
22.6586	14.935	1618.64
24.6586	14.935	1617.06
-38.3414	15.935	1604.72
-36.3414	15.935	1606.04
-34.3414	15.935	1604.44
-32.3414	15.935	1605.22
-30.3414	15.935	1614.66
-28.3414	15.935	1609.52
-26.3414	15.935	1618.17
-24.3414	15.935	1616.25
-22.3414	15.935	1618.76
-20.3414	15.935	1609.59
-18.3414	15.935	1601.1
-16.3414	15.935	1600
-14.3414	15.935	1603.29
-12.3414	15.935	1604.45
-10.3414	15.935	1620.16
-8.341423	15.935	1619.71
-6.341423	15.935	1614.16
-4.341423	15.935	1616.71
-2.341423	15.935	1613.42
-0.341423	15.935	1618.17
1.658577	15.935	1614.53
3.658577	15.935	1610.94
5.658577	15.935	1607.22
7.658577	15.935	1616.74
9.658577	15.935	1614.65
11.6586	15.935	1613.13
13.6586	15.935	1608.66
15.6586	15.935	1616.39
17.6586	15.935	1618.31
19.6586	15.935	1640
21.6586	15.935	1640
23.6586	15.935	1600
24.6586	15.935	1618.68