File: data/derived_data/raman/20170920_Gr-NH2_for_Radisurf/20170920 Gr-NH for Radisurf map 2/G FWHM.txt
#XList		#YList		#IList
-39.3414	-21.065	49.0466
-37.3414	-21.065	39.4265
-35.3414	-21.065	42.679
-33.3414	-21.065	62.8059
-31.3414	-21.065	70.988
-29.3414	-21.065	77.0308
-27.3414	-21.065	75.7891
-25.3414	-21.065	59.9233
-23.3414	-21.065	17.1802
-21.3414	-21.065	65.2321
-19.3414	-21.065	23.12
-17.3414	-21.065	77.0539
-15.3414	-21.065	71.7653
-13.3414	-21.065	74.6127
-11.3414	-21.065	79.5911
-9.341423	-21.065	61.5401
-7.341423	-21.065	48.3206
-5.341423	-21.065	59.1268
-3.341423	-21.065	79.7675
-1.341423	-21.065	44.2206
0.658577	-21.065	52.2464
2.658577	-21.065	59.7234
4.658577	-21.065	35.6273
6.658577	-21.065	11.0633
8.658577	-21.065	16.8783
10.6586	-21.065	31.7597
12.6586	-21.065	58.0093
14.6586	-21.065	62.1573
16.6586	-21.065	42.0763
18.6586	-21.065	59.5766
20.6586	-21.065	60.1427
22.6586	-21.065	127.689
24.6586	-21.065	324.62
-38.3414	-20.065	57.0088
-36.3414	-20.065	31.6067
-34.3414	-20.065	50.7397
-32.3414	-20.065	61.5755
-30.3414	-20.065	63.4678
-28.3414	-20.065	59.298
-26.3414	-20.065	60.1607
-24.3414	-20.065	56.7666
-22.3414	-20.065	79.2208
-20.3414	-20.065	61.9508
-18.3414	-20.065	44.2779
-16.3414	-20.065	73.0487
-14.3414	-20.065	79.4097
-12.3414	-20.065	71.1127
-10.3414	-20.065	64.2854
-8.341423	-20.065	49.9733
-6.341423	-20.065	49.868
-4.341423	-20.065	70.2043
-2.341423	-20.065	60.7265
-0.341423	-20.065	56.3463
1.658577	-20.065	45.3676
3.658577	-20.065	34.9338
5.658577	-20.065	21.7542
7.658577	-20.065	133.379
9.658577	-20.065	39.6651
11.6586	-20.065	32.4537
13.6586	-20.065	59.2979
15.6586	-20.065	58.8718
17.6586	-20.065	57.9864
19.6586	-20.065	72.1328
21.6586	-20.065	62.9166
23.6586	-20.065	7.852686
-39.3414	-19.065	62.5603
-37.3414	-19.065	50.7657
-35.3414	-19.065	53.8351
-33.3414	-19.065	45.4009
-31.3414	-19.065	72.7868
-29.3414	-19.065	61.4364
-27.3414	-19.065	61.4122
-25.3414	-19.065	60.8926
-23.3414	-19.065	60.736
-21.3414	-19.065	57.8176
-19.3414	-19.065	63.6366
-17.3414	-19.065	68.9542
-15.3414	-19.065	74.8171
-13.3414	-19.065	80.9025
-11.3414	-19.065	67.3613
-9.341423	-19.065	52.9472
-7.341423	-19.065	57.3716
-5.341423	-19.065	51.0724
-3.341423	-19.065	68.4095
-1.341423	-19.065	54.8652
0.658577	-19.065	38.9683
2.658577	-19.065	42.4049
4.658577	-19.065	37.4526
6.658577	-19.065	45.6158
8.658577	-19.065	73.6192
10.6586	-19.065	23.7525
12.6586	-19.065	68.4302
14.6586	-19.065	61.3746
16.6586	-19.065	55.8587
18.6586	-19.065	59.6804
20.6586	-19.065	66.5921
22.6586	-19.065	71.2309
24.6586	-19.065	89.5496
-38.3414	-18.065	60.0787
-36.3414	-18.065	52.4537
-34.3414	-18.065	50.9365
-32.3414	-18.065	64.8808
-30.3414	-18.065	72.2296
-28.3414	-18.065	63.4684
-26.3414	-18.065	76.8304
-24.3414	-18.065	59.3676
-22.3414	-18.065	60.6793
-20.3414	-18.065	60.4823
-18.3414	-18.065	63.8133
-16.3414	-18.065	74.6076
-14.3414	-18.065	78.5374
-12.3414	-18.065	74.5886
-10.3414	-18.065	59.8829
-8.341423	-18.065	52.5602
-6.341423	-18.065	59.0055
-4.341423	-18.065	63.2396
-2.341423	-18.065	54.3817
-0.341423	-18.065	52.2742
1.658577	-18.065	44.2919
3.658577	-18.065	37.5572
5.658577	-18.065	70.0676
7.658577	-18.065	73.0937
9.658577	-18.065	75.2761
11.6586	-18.065	72.9092
13.6586	-18.065	65.3869
15.6586	-18.065	50.6009
17.6586	-18.065	56.8448
19.6586	-18.065	58.5739
21.6586	-18.065	74.0278
23.6586	-18.065	60.0372
-39.3414	-17.065	66.6673
-37.3414	-17.065	71.3675
-35.3414	-17.065	65.2893
-33.3414	-17.065	77.2303
-31.3414	-17.065	58.1112
-29.3414	-17.065	76.8606
-27.3414	-17.065	59.2529
-25.3414	-17.065	59.0364
-23.3414	-17.065	60.1866
-21.3414	-17.065	63.2576
-19.3414	-17.065	73.2531
-17.3414	-17.065	74.5573
-15.3414	-17.065	76.731
-13.3414	-17.065	78.74
-11.3414	-17.065	64.7696
-9.341423	-17.065	54.798
-7.341423	-17.065	72.4052
-5.341423	-17.065	66.6554
-3.341423	-17.065	56.2508
-1.341423	-17.065	65.1822
0.658577	-17.065	51.6214
2.658577	-17.065	53.2535
4.658577	-17.065	60.219
6.658577	-17.065	59.4078
8.658577	-17.065	78.3708
10.6586	-17.065	73.6725
12.6586	-17.065	75.6313
14.6586	-17.065	48.8834
16.6586	-17.065	66.7118
18.6586	-17.065	13.7699
20.6586	-17.065	85.5337
22.6586	-17.065	71.2498
24.6586	-17.065	64.6973
-38.3414	-16.065	66.1997
-36.3414	-16.065	74.0197
-34.3414	-16.065	78.9486
-32.3414	-16.065	76.4392
-30.3414	-16.065	75.9168
-28.3414	-16.065	62.7157
-26.3414	-16.065	74.2477
-24.3414	-16.065	61.5387
-22.3414	-16.065	58.911
-20.3414	-16.065	67.1089
-18.3414	-16.065	81.3468
-16.3414	-16.065	63.8889
-14.3414	-16.065	74.3579
-12.3414	-16.065	67.8204
-10.3414	-16.065	56.7642
-8.341423	-16.065	57.9165
-6.341423	-16.065	57.2192
-4.341423	-16.065	56.4454
-2.341423	-16.065	43.4905
-0.341423	-16.065	63.6424
1.658577	-16.065	59.5654
3.658577	-16.065	29.0472
5.658577	-16.065	54.6839
7.658577	-16.065	78.1523
9.658577	-16.065	61.7394
11.6586	-16.065	74.669
13.6586	-16.065	71.731
15.6586	-16.065	66.3577
17.6586	-16.065	29.0542
19.6586	-16.065	53.4244
21.6586	-16.065	49.6835
23.6586	-16.065	57.669
-39.3414	-15.065	43.0226
-37.3414	-15.065	79.72
-35.3414	-15.065	73.5967
-33.3414	-15.065	76.5023
-31.3414	-15.065	79.5736
-29.3414	-15.065	65.4889
-27.3414	-15.065	73.8937
-25.3414	-15.065	61.4836
-23.3414	-15.065	59.5439
-21.3414	-15.065	60.0675
-19.3414	-15.065	81.1397
-17.3414	-15.065	72.8349
-15.3414	-15.065	76.3514
-13.3414	-15.065	71.9834
-11.3414	-15.065	60.0725
-9.341423	-15.065	58.4316
-7.341423	-15.065	56.9678
-5.341423	-15.065	59.9801
-3.341423	-15.065	54.4305
-1.341423	-15.065	48.1435
0.658577	-15.065	58.5721
2.658577	-15.065	54.1224
4.658577	-15.065	60.1616
6.658577	-15.065	76.6575
8.658577	-15.065	74.3616
10.6586	-15.065	77.0968
12.6586	-15.065	71.2894
14.6586	-15.065	59.9241
16.6586	-15.065	62.6742
18.6586	-15.065	41.9775
20.6586	-15.065	64.0292
22.6586	-15.065	62.4329
24.6586	-15.065	66.5388
-38.3414	-14.065	93.7682
-36.3414	-14.065	77.276
-34.3414	-14.065	77.451
-32.3414	-14.065	80.8629
-30.3414	-14.065	80.6867
-28.3414	-14.065	62.7683
-26.3414	-14.065	65.1156
-24.3414	-14.065	59.6514
-22.3414	-14.065	61.2229
-20.3414	-14.065	65.4371
-18.3414	-14.065	69.0503
-16.3414	-14.065	70.4812
-14.3414	-14.065	69.8839
-12.3414	-14.065	70.3154
-10.3414	-14.065	56.1503
-8.341423	-14.065	48.8956
-6.341423	-14.065	55.4883
-4.341423	-14.065	40.9984
-2.341423	-14.065	52.0706
-0.341423	-14.065	55.2251
1.658577	-14.065	57.7573
3.658577	-14.065	42.7294
5.658577	-14.065	56.6501
7.658577	-14.065	76.7904
9.658577	-14.065	76.2382
11.6586	-14.065	75.9267
13.6586	-14.065	63.108
15.6586	-14.065	94.7116
17.6586	-14.065	82.0637
19.6586	-14.065	55.4063
21.6586	-14.065	56.2494
23.6586	-14.065	50.5939
-39.3414	-13.065	72.3746
-37.3414	-13.065	77.5725
-35.3414	-13.065	80.8184
-33.3414	-13.065	77.8977
-31.3414	-13.065	78.5145
-29.3414	-13.065	76.4967
-27.3414	-13.065	69.877
-25.3414	-13.065	61.1867
-23.3414	-13.065	61.3802
-21.3414	-13.065	63.9453
-19.3414	-13.065	45.3045
-17.3414	-13.065	26.7346
-15.3414	-13.065	59.2028
-13.3414	-13.065	88.1148
-11.3414	-13.065	58.2673
-9.341423	-13.065	50.8828
-7.341423	-13.065	55.3335
-5.341423	-13.065	55.2266
-3.341423	-13.065	54.5926
-1.341423	-13.065	60.0527
0.658577	-13.065	60.2119
2.658577	-13.065	46.8384
4.658577	-13.065	47.9894
6.658577	-13.065	56.1623
8.658577	-13.065	73.5781
10.6586	-13.065	67.9444
12.6586	-13.065	54.9394
14.6586	-13.065	59.5865
16.6586	-13.065	67.558
18.6586	-13.065	49.8574
20.6586	-13.065	58.2521
22.6586	-13.065	57.2479
24.6586	-13.065	34.7395
-38.3414	-12.065	74.6955
-36.3414	-12.065	77.7107
-34.3414	-12.065	76.9782
-32.3414	-12.065	75.9832
-30.3414	-12.065	78.2658
-28.3414	-12.065	73.8194
-26.3414	-12.065	76.1487
-24.3414	-12.065	75.4565
-22.3414	-12.065	77.9817
-20.3414	-12.065	24.2604
-18.3414	-12.065	30.0886
-16.3414	-12.065	34.7256
-14.3414	-12.065	69.8554
-12.3414	-12.065	54.7999
-10.3414	-12.065	51.6403
-8.341423	-12.065	52.2509
-6.341423	-12.065	60.1313
-4.341423	-12.065	49.3454
-2.341423	-12.065	60.7283
-0.341423	-12.065	59.2506
1.658577	-12.065	54.3305
3.658577	-12.065	34.2518
5.658577	-12.065	41.8321
7.658577	-12.065	65.1388
9.658577	-12.065	74.9211
11.6586	-12.065	86.8969
13.6586	-12.065	19.8412
15.6586	-12.065	61.1511
17.6586	-12.065	55.6228
19.6586	-12.065	41.7913
21.6586	-12.065	37.5032
23.6586	-12.065	56.0064
-39.3414	-11.065	76.3964
-37.3414	-11.065	76.6154
-35.3414	-11.065	76.0839
-33.3414	-11.065	77.2775
-31.3414	-11.065	74.3303
-29.3414	-11.065	76.7299
-27.3414	-11.065	71.3549
-25.3414	-11.065	66.3947
-23.3414	-11.065	63.95
-21.3414	-11.065	63.751
-19.3414	-11.065	52.7891
-17.3414	-11.065	42.5965
-15.3414	-11.065	59.8633
-13.3414	-11.065	63.1324
-11.3414	-11.065	58.0467
-9.341423	-11.065	48.8065
-7.341423	-11.065	58.2158
-5.341423	-11.065	49.3616
-3.341423	-11.065	49.8375
-1.341423	-11.065	58.3622
0.658577	-11.065	62.9446
2.658577	-11.065	55.6603
4.658577	-11.065	27.5905
6.658577	-11.065	23.5486
8.658577	-11.065	59.464
10.6586	-11.065	277.526
12.6586	-11.065	73.3481
14.6586	-11.065	61.0981
16.6586	-11.065	61.3911
18.6586	-11.065	26.3799
20.6586	-11.065	22.457
22.6586	-11.065	24.0864
24.6586	-11.065	55.0203
-38.3414	-10.065	75.8096
-36.3414	-10.065	77.8701
-34.3414	-10.065	79.3929
-32.3414	-10.065	76.9447
-30.3414	-10.065	76.8455
-28.3414	-10.065	77.2211
-26.3414	-10.065	69.2348
-24.3414	-10.065	61.9954
-22.3414	-10.065	71.583
-20.3414	-10.065	63.1141
-18.3414	-10.065	45.354
-16.3414	-10.065	56.0502
-14.3414	-10.065	67.0234
-12.3414	-10.065	73.9672
-10.3414	-10.065	72.1136
-8.341423	-10.065	31.9367
-6.341423	-10.065	30.0974
-4.341423	-10.065	38.4658
-2.341423	-10.065	50.4773
-0.341423	-10.065	60.7905
1.658577	-10.065	60.36
3.658577	-10.065	18.7117
5.658577	-10.065	52.7821
7.658577	-10.065	69.6107
9.658577	-10.065	28.1085
11.6586	-10.065	2.588348
13.6586	-10.065	35.8386
15.6586	-10.065	58.3001
17.6586	-10.065	25.4017
19.6586	-10.065	28.4188
21.6586	-10.065	22.1543
23.6586	-10.065	33.1648
-39.3414	-9.065000	80.1186
-37.3414	-9.065000	79.8438
-35.3414	-9.065000	76.3951
-33.3414	-9.065000	80.0982
-31.3414	-9.065000	75.6058
-29.3414	-9.065000	77.5248
-27.3414	-9.065000	73.5799
-25.3414	-9.065000	63.5705
-23.3414	-9.065000	61.1274
-21.3414	-9.065000	50.7061
-19.3414	-9.065000	51.6555
-17.3414	-9.065000	57.4735
-15.3414	-9.065000	69.3859
-13.3414	-9.065000	77.481
-11.3414	-9.065000	70.9493
-9.341423	-9.065000	73.765
-7.341423	-9.065000	36.8157
-5.341423	-9.065000	23.2489
-3.341423	-9.065000	42.8255
-1.341423	-9.065000	52.4334
0.658577	-9.065000	64.4765
2.658577	-9.065000	24.9972
4.658577	-9.065000	36.1755
6.658577	-9.065000	70.2927
8.658577	-9.065000	68.9327
10.6586	-9.065000	334.336
12.6586	-9.065000	59.8538
14.6586	-9.065000	35.7765
16.6586	-9.065000	38.4027
18.6586	-9.065000	17.7056
20.6586	-9.065000	16.5187
22.6586	-9.065000	26.6728
24.6586	-9.065000	62.4421
-38.3414	-8.065000	80.2893
-36.3414	-8.065000	80.2433
-34.3414	-8.065000	76.9428
-32.3414	-8.065000	76.8922
-30.3414	-8.065000	78.9278
-28.3414	-8.065000	71.8516
-26.3414	-8.065000	67.6456
-24.3414	-8.065000	47.8031
-22.3414	-8.065000	47.6326
-20.3414	-8.065000	14.7677
-18.3414	-8.065000	58.8629
-16.3414	-8.065000	70.9501
-14.3414	-8.065000	66.0423
-12.3414	-8.065000	67.9675
-10.3414	-8.065000	76.4105
-8.341423	-8.065000	73.5414
-6.341423	-8.065000	21.8288
-4.341423	-8.065000	26.9559
-2.341423	-8.065000	46.6709
-0.341423	-8.065000	55.3589
1.658577	-8.065000	64.6045
3.658577	-8.065000	55.4124
5.658577	-8.065000	69.8148
7.658577	-8.065000	75.2562
9.658577	-8.065000	576.885
11.6586	-8.065000	93.537
13.6586	-8.065000	38.3714
15.6586	-8.065000	63.8452
17.6586	-8.065000	43.9135
19.6586	-8.065000	16.868
21.6586	-8.065000	16.678
23.6586	-8.065000	39.8818
-39.3414	-7.065000	78.2753
-37.3414	-7.065000	81.1797
-35.3414	-7.065000	77.1691
-33.3414	-7.065000	77.1039
-31.3414	-7.065000	72.4693
-29.3414	-7.065000	74.1574
-27.3414	-7.065000	65.6811
-25.3414	-7.065000	69.9438
-23.3414	-7.065000	42.5836
-21.3414	-7.065000	17.8575
-19.3414	-7.065000	66.038
-17.3414	-7.065000	70.2074
-15.3414	-7.065000	67.7696
-13.3414	-7.065000	82.6506
-11.3414	-7.065000	80.0104
-9.341423	-7.065000	72.2113
-7.341423	-7.065000	76.9413
-5.341423	-7.065000	52.108
-3.341423	-7.065000	65.1557
-1.341423	-7.065000	50.2451
0.658577	-7.065000	73.078
2.658577	-7.065000	58.7009
4.658577	-7.065000	62.7817
6.658577	-7.065000	74.0468
8.658577	-7.065000	124.94
10.6586	-7.065000	62.7998
12.6586	-7.065000	80.2422
14.6586	-7.065000	67.1677
16.6586	-7.065000	46.931
18.6586	-7.065000	36.5672
20.6586	-7.065000	46.1922
22.6586	-7.065000	41.63
24.6586	-7.065000	64.5219
-38.3414	-6.065000	78.5436
-36.3414	-6.065000	76.487
-34.3414	-6.065000	78.616
-32.3414	-6.065000	76.9455
-30.3414	-6.065000	76.201
-28.3414	-6.065000	72.4542
-26.3414	-6.065000	65.6993
-24.3414	-6.065000	67.5909
-22.3414	-6.065000	63.1577
-20.3414	-6.065000	60.01
-18.3414	-6.065000	98.1975
-16.3414	-6.065000	70.9597
-14.3414	-6.065000	79.5281
-12.3414	-6.065000	79.3413
-10.3414	-6.065000	77.0846
-8.341423	-6.065000	74.3642
-6.341423	-6.065000	77.1709
-4.341423	-6.065000	67.7809
-2.341423	-6.065000	56.0527
-0.341423	-6.065000	88.7898
1.658577	-6.065000	69.1632
3.658577	-6.065000	63.556
5.658577	-6.065000	63.7684
7.658577	-6.065000	61.2113
9.658577	-6.065000	59.778
11.6586	-6.065000	62.449
13.6586	-6.065000	59.6713
15.6586	-6.065000	60.08
17.6586	-6.065000	30.5121
19.6586	-6.065000	30.6027
21.6586	-6.065000	41.8489
23.6586	-6.065000	49.5268
-39.3414	-5.065000	83.6483
-37.3414	-5.065000	74.1827
-35.3414	-5.065000	76.422
-33.3414	-5.065000	72.5664
-31.3414	-5.065000	72.0384
-29.3414	-5.065000	70.4963
-27.3414	-5.065000	63.4221
-25.3414	-5.065000	60.9503
-23.3414	-5.065000	70.5223
-21.3414	-5.065000	65.3848
-19.3414	-5.065000	51.9682
-17.3414	-5.065000	78.7018
-15.3414	-5.065000	76.2793
-13.3414	-5.065000	76.7827
-11.3414	-5.065000	73.0972
-9.341423	-5.065000	72.7089
-7.341423	-5.065000	75.8293
-5.341423	-5.065000	69.3813
-3.341423	-5.065000	81.0276
-1.341423	-5.065000	65.2287
0.658577	-5.065000	59.878
2.658577	-5.065000	76.0023
4.658577	-5.065000	62.8232
6.658577	-5.065000	51.3849
8.658577	-5.065000	77.5321
10.6586	-5.065000	60.0166
12.6586	-5.065000	66.427
14.6586	-5.065000	65.6092
16.6586	-5.065000	62.223
18.6586	-5.065000	35.2765
20.6586	-5.065000	29.7819
22.6586	-5.065000	52.8518
24.6586	-5.065000	43.1418
-38.3414	-4.065000	71.4423
-36.3414	-4.065000	56.4821
-34.3414	-4.065000	73.1605
-32.3414	-4.065000	70.3982
-30.3414	-4.065000	69.3338
-28.3414	-4.065000	70.2493
-26.3414	-4.065000	64.253
-24.3414	-4.065000	68.5472
-22.3414	-4.065000	70.9469
-20.3414	-4.065000	62.298
-18.3414	-4.065000	70.6973
-16.3414	-4.065000	71.5164
-14.3414	-4.065000	77.7281
-12.3414	-4.065000	75.0986
-10.3414	-4.065000	68.7159
-8.341423	-4.065000	75.7948
-6.341423	-4.065000	63.5073
-4.341423	-4.065000	61.9081
-2.341423	-4.065000	110.641
-0.341423	-4.065000	76.7353
1.658577	-4.065000	53.5179
3.658577	-4.065000	89.2995
5.658577	-4.065000	61.5801
7.658577	-4.065000	68.2447
9.658577	-4.065000	68.5917
11.6586	-4.065000	51.3533
13.6586	-4.065000	68.9885
15.6586	-4.065000	73.6158
17.6586	-4.065000	57.3052
19.6586	-4.065000	51.4268
21.6586	-4.065000	55.1813
23.6586	-4.065000	57.1123
-39.3414	-3.065000	225.576
-37.3414	-3.065000	48.676
-35.3414	-3.065000	59.678
-33.3414	-3.065000	65.3833
-31.3414	-3.065000	76.1877
-29.3414	-3.065000	69.6699
-27.3414	-3.065000	63.5402
-25.3414	-3.065000	61.0385
-23.3414	-3.065000	73.4485
-21.3414	-3.065000	66.6179
-19.3414	-3.065000	60.4106
-17.3414	-3.065000	63.3409
-15.3414	-3.065000	72.38
-13.3414	-3.065000	75.8301
-11.3414	-3.065000	58.579
-9.341423	-3.065000	59.7349
-7.341423	-3.065000	51.7003
-5.341423	-3.065000	60.7783
-3.341423	-3.065000	61.9649
-1.341423	-3.065000	76.9352
0.658577	-3.065000	67.9397
2.658577	-3.065000	72.8053
4.658577	-3.065000	70.2489
6.658577	-3.065000	56.5776
8.658577	-3.065000	67.1901
10.6586	-3.065000	63.0897
12.6586	-3.065000	70.2726
14.6586	-3.065000	68.3752
16.6586	-3.065000	58.0095
18.6586	-3.065000	58.1739
20.6586	-3.065000	39.9091
22.6586	-3.065000	46.4182
24.6586	-3.065000	53.5252
-38.3414	-2.065000	70.5843
-36.3414	-2.065000	60.1424
-34.3414	-2.065000	60.2442
-32.3414	-2.065000	64.21
-30.3414	-2.065000	75.6726
-28.3414	-2.065000	95.4073
-26.3414	-2.065000	72.1494
-24.3414	-2.065000	78.3905
-22.3414	-2.065000	68.9264
-20.3414	-2.065000	65.2584
-18.3414	-2.065000	74.8109
-16.3414	-2.065000	49.1186
-14.3414	-2.065000	72.9894
-12.3414	-2.065000	67.8664
-10.3414	-2.065000	68.0435
-8.341423	-2.065000	56.0316
-6.341423	-2.065000	57.7287
-4.341423	-2.065000	50.2482
-2.341423	-2.065000	75.3236
-0.341423	-2.065000	74.4687
1.658577	-2.065000	73.8943
3.658577	-2.065000	68.4557
5.658577	-2.065000	58.7575
7.658577	-2.065000	62.4468
9.658577	-2.065000	58.2968
11.6586	-2.065000	49.7686
13.6586	-2.065000	72.8408
15.6586	-2.065000	66.2293
17.6586	-2.065000	57.2067
19.6586	-2.065000	55.4974
21.6586	-2.065000	89.9833
23.6586	-2.065000	31.55
-39.3414	-1.065000	24.6308
-37.3414	-1.065000	62.7337
-35.3414	-1.065000	49.3768
-33.3414	-1.065000	59.3566
-31.3414	-1.065000	54.2463
-29.3414	-1.065000	62.6128
-27.3414	-1.065000	56.2715
-25.3414	-1.065000	72.1907
-23.3414	-1.065000	73.9728
-21.3414	-1.065000	68.9588
-19.3414	-1.065000	89.9169
-17.3414	-1.065000	42.0592
-15.3414	-1.065000	63.7092
-13.3414	-1.065000	79.0338
-11.3414	-1.065000	66.1634
-9.341423	-1.065000	55.5304
-7.341423	-1.065000	51.8624
-5.341423	-1.065000	75.4569
-3.341423	-1.065000	27.7305
-1.341423	-1.065000	69.0522
0.658577	-1.065000	74.7636
2.658577	-1.065000	67.9925
4.658577	-1.065000	33.8129
6.658577	-1.065000	65.918
8.658577	-1.065000	68.1346
10.6586	-1.065000	56.9084
12.6586	-1.065000	65.8028
14.6586	-1.065000	72.7076
16.6586	-1.065000	59.1669
18.6586	-1.065000	63.3376
20.6586	-1.065000	75.9565
22.6586	-1.065000	50.1225
24.6586	-1.065000	35.1718
-38.3414	-0.065000	18.5772
-36.3414	-0.065000	18.4092
-34.3414	-0.065000	45.5722
-32.3414	-0.065000	36.3954
-30.3414	-0.065000	20.4451
-28.3414	-0.065000	2.408518
-26.3414	-0.065000	63.5761
-24.3414	-0.065000	78.1056
-22.3414	-0.065000	70.333
-20.3414	-0.065000	66.0529
-18.3414	-0.065000	62.2126
-16.3414	-0.065000	50.8977
-14.3414	-0.065000	75.55
-12.3414	-0.065000	76.1658
-10.3414	-0.065000	63.9383
-8.341423	-0.065000	59.0068
-6.341423	-0.065000	61.8687
-4.341423	-0.065000	63.1182
-2.341423	-0.065000	74.7975
-0.341423	-0.065000	74.0553
1.658577	-0.065000	72.1867
3.658577	-0.065000	34.2549
5.658577	-0.065000	58.9983
7.658577	-0.065000	71.829
9.658577	-0.065000	67.9881
11.6586	-0.065000	69.9905
13.6586	-0.065000	63.9214
15.6586	-0.065000	74.3728
17.6586	-0.065000	60.631
19.6586	-0.065000	77.7268
21.6586	-0.065000	82.5576
23.6586	-0.065000	30.8797
-39.3414	0.935000	13.5623
-37.3414	0.935000	16.597
-35.3414	0.935000	39.7996
-33.3414	0.935000	53.899
-31.3414	0.935000	54.7417
-29.3414	0.935000	54.4856
-27.3414	0.935000	80.7497
-25.3414	0.935000	71.6676
-23.3414	0.935000	64.8575
-21.3414	0.935000	75.1411
-19.3414	0.935000	62.3995
-17.3414	0.935000	51.6725
-15.3414	0.935000	71.9386
-13.3414	0.935000	77.8947
-11.3414	0.935000	74.0893
-9.341423	0.935000	62.958
-7.341423	0.935000	57.9055
-5.341423	0.935000	70.5621
-3.341423	0.935000	72.8489
-1.341423	0.935000	75.9413
0.658577	0.935000	74.0712
2.658577	0.935000	39.7674
4.658577	0.935000	55.5981
6.658577	0.935000	64.9364
8.658577	0.935000	65.9441
10.6586	0.935000	67.4381
12.6586	0.935000	66.7908
14.6586	0.935000	69.5546
16.6586	0.935000	66.1779
18.6586	0.935000	73.6584
20.6586	0.935000	76.1401
22.6586	0.935000	75.3089
24.6586	0.935000	45.0599
-38.3414	1.935000	19.925
-36.3414	1.935000	58.0668
-34.3414	1.935000	49.6372
-32.3414	1.935000	68.2159
-30.3414	1.935000	61.1366
-28.3414	1.935000	78.1831
-26.3414	1.935000	74.7603
-24.3414	1.935000	45.2981
-22.3414	1.935000	78.3081
-20.3414	1.935000	72.2278
-18.3414	1.935000	67.5329
-16.3414	1.935000	61.7815
-14.3414	1.935000	69.3301
-12.3414	1.935000	72.8954
-10.3414	1.935000	77.2449
-8.341423	1.935000	75.604
-6.341423	1.935000	66.4534
-4.341423	1.935000	71.5997
-2.341423	1.935000	76.0642
-0.341423	1.935000	74.4491
1.658577	1.935000	56.1461
3.658577	1.935000	48.1075
5.658577	1.935000	67.9084
7.658577	1.935000	70.1413
9.658577	1.935000	71.9336
11.6586	1.935000	73.493
13.6586	1.935000	64.579
15.6586	1.935000	64.5699
17.6586	1.935000	63.3659
19.6586	1.935000	66.1006
21.6586	1.935000	76.092
23.6586	1.935000	68.0768
-39.3414	2.935000	27.9613
-37.3414	2.935000	65.1261
-35.3414	2.935000	60.5352
-33.3414	2.935000	51.9224
-31.3414	2.935000	60.5309
-29.3414	2.935000	66.631
-27.3414	2.935000	68.2667
-25.3414	2.935000	69.6831
-23.3414	2.935000	52.8955
-21.3414	2.935000	76.7349
-19.3414	2.935000	68.531
-17.3414	2.935000	96.4973
-15.3414	2.935000	56.973
-13.3414	2.935000	72.1786
-11.3414	2.935000	66.9479
-9.341423	2.935000	71.8094
-7.341423	2.935000	63.8602
-5.341423	2.935000	73.7401
-3.341423	2.935000	72.0545
-1.341423	2.935000	73.866
0.658577	2.935000	77.6326
2.658577	2.935000	51.4878
4.658577	2.935000	56.2667
6.658577	2.935000	73.9867
8.658577	2.935000	72.298
10.6586	2.935000	75.4585
12.6586	2.935000	65.3877
14.6586	2.935000	67.8668
16.6586	2.935000	61.0144
18.6586	2.935000	70.891
20.6586	2.935000	74.5185
22.6586	2.935000	76.2413
24.6586	2.935000	69.8279
-38.3414	3.935000	65.1328
-36.3414	3.935000	51.3854
-34.3414	3.935000	54.2296
-32.3414	3.935000	62.0119
-30.3414	3.935000	65.1703
-28.3414	3.935000	64.2444
-26.3414	3.935000	62.9813
-24.3414	3.935000	73.3886
-22.3414	3.935000	56.5865
-20.3414	3.935000	70.1516
-18.3414	3.935000	76.1422
-16.3414	3.935000	85.427
-14.3414	3.935000	75.4676
-12.3414	3.935000	60.9212
-10.3414	3.935000	63.9293
-8.341423	3.935000	38.4487
-6.341423	3.935000	68.2477
-4.341423	3.935000	72.9547
-2.341423	3.935000	77.2207
-0.341423	3.935000	76.4308
1.658577	3.935000	69.0896
3.658577	3.935000	58.7151
5.658577	3.935000	61.1669
7.658577	3.935000	72.3566
9.658577	3.935000	68.9685
11.6586	3.935000	59.5566
13.6586	3.935000	63.6586
15.6586	3.935000	59.7177
17.6586	3.935000	77.0253
19.6586	3.935000	76.1638
21.6586	3.935000	68.6518
23.6586	3.935000	65.625
-39.3414	4.935000	70.1179
-37.3414	4.935000	69.2386
-35.3414	4.935000	71.2216
-33.3414	4.935000	59.1522
-31.3414	4.935000	62.8689
-29.3414	4.935000	65.2436
-27.3414	4.935000	62.887
-25.3414	4.935000	68.5363
-23.3414	4.935000	58.078
-21.3414	4.935000	50.0353
-19.3414	4.935000	78.0495
-17.3414	4.935000	75.421
-15.3414	4.935000	67.8701
-13.3414	4.935000	78.9525
-11.3414	4.935000	63.6847
-9.341423	4.935000	62.5866
-7.341423	4.935000	53.5061
-5.341423	4.935000	71.8098
-3.341423	4.935000	75.0883
-1.341423	4.935000	83.78
0.658577	4.935000	80.3112
2.658577	4.935000	67.8408
4.658577	4.935000	60.3726
6.658577	4.935000	61.6333
8.658577	4.935000	70.322
10.6586	4.935000	71.7729
12.6586	4.935000	69.1748
14.6586	4.935000	65.2531
16.6586	4.935000	63.0093
18.6586	4.935000	75.6746
20.6586	4.935000	62.0062
22.6586	4.935000	67.8768
24.6586	4.935000	57.9785
-38.3414	5.935000	75.0297
-36.3414	5.935000	73.5279
-34.3414	5.935000	79.4834
-32.3414	5.935000	73.3157
-30.3414	5.935000	72.51
-28.3414	5.935000	72.9229
-26.3414	5.935000	62.8306
-24.3414	5.935000	75.4281
-22.3414	5.935000	42.3393
-20.3414	5.935000	72.1562
-18.3414	5.935000	78.831
-16.3414	5.935000	76.2058
-14.3414	5.935000	68.0028
-12.3414	5.935000	81.0184
-10.3414	5.935000	68.5664
-8.341423	5.935000	64.3665
-6.341423	5.935000	58.2315
-4.341423	5.935000	59.4199
-2.341423	5.935000	80.2572
-0.341423	5.935000	80.5444
1.658577	5.935000	73.677
3.658577	5.935000	60.147
5.658577	5.935000	60.6619
7.658577	5.935000	55.0588
9.658577	5.935000	66.6203
11.6586	5.935000	64.1477
13.6586	5.935000	59.1484
15.6586	5.935000	65.7433
17.6586	5.935000	79.3211
19.6586	5.935000	72.7436
21.6586	5.935000	69.2294
23.6586	5.935000	76.8558
-39.3414	6.935000	76.6476
-37.3414	6.935000	77.9199
-35.3414	6.935000	76.8681
-33.3414	6.935000	83.0618
-31.3414	6.935000	64.927
-29.3414	6.935000	64.0238
-27.3414	6.935000	49.4982
-25.3414	6.935000	67.9294
-23.3414	6.935000	57.8073
-21.3414	6.935000	51.7622
-19.3414	6.935000	76.1599
-17.3414	6.935000	76.9443
-15.3414	6.935000	68.2087
-13.3414	6.935000	71.5874
-11.3414	6.935000	59.8809
-9.341423	6.935000	56.8427
-7.341423	6.935000	51.6683
-5.341423	6.935000	63.4029
-3.341423	6.935000	58.6726
-1.341423	6.935000	82.7441
0.658577	6.935000	78.9177
2.658577	6.935000	61.8603
4.658577	6.935000	59.4073
6.658577	6.935000	57.7355
8.658577	6.935000	56.5894
10.6586	6.935000	67.1369
12.6586	6.935000	66.3517
14.6586	6.935000	67.7952
16.6586	6.935000	67.5287
18.6586	6.935000	78.2947
20.6586	6.935000	69.1078
22.6586	6.935000	72.253
24.6586	6.935000	77.4118
-38.3414	7.935000	79.49
-36.3414	7.935000	76.9773
-34.3414	7.935000	77.8563
-32.3414	7.935000	76.4024
-30.3414	7.935000	60.5526
-28.3414	7.935000	56.1898
-26.3414	7.935000	49.1959
-24.3414	7.935000	53.7953
-22.3414	7.935000	46.2436
-20.3414	7.935000	61.5077
-18.3414	7.935000	64.9249
-16.3414	7.935000	67.9635
-14.3414	7.935000	74.8854
-12.3414	7.935000	72.54
-10.3414	7.935000	45.2258
-8.341423	7.935000	47.3699
-6.341423	7.935000	56.8656
-4.341423	7.935000	62.275
-2.341423	7.935000	70.6938
-0.341423	7.935000	79.0697
1.658577	7.935000	65.1669
3.658577	7.935000	53.0704
5.658577	7.935000	40.1237
7.658577	7.935000	51.8047
9.658577	7.935000	57.5327
11.6586	7.935000	63.6848
13.6586	7.935000	66.0589
15.6586	7.935000	62.5198
17.6586	7.935000	64.171
19.6586	7.935000	73.5257
21.6586	7.935000	66.2878
23.6586	7.935000	67.3445
-39.3414	8.935000	76.4633
-37.3414	8.935000	80.3216
-35.3414	8.935000	78.6715
-33.3414	8.935000	77.523
-31.3414	8.935000	73.7969
-29.3414	8.935000	62.7791
-27.3414	8.935000	56.3911
-25.3414	8.935000	57.1169
-23.3414	8.935000	53.0896
-21.3414	8.935000	51.0575
-19.3414	8.935000	61.6589
-17.3414	8.935000	71.5295
-15.3414	8.935000	68.7984
-13.3414	8.935000	65.724
-11.3414	8.935000	52.7831
-9.341423	8.935000	45.9477
-7.341423	8.935000	51.3251
-5.341423	8.935000	53.1886
-3.341423	8.935000	60.0573
-1.341423	8.935000	76.563
0.658577	8.935000	72.102
2.658577	8.935000	62.0024
4.658577	8.935000	57.7147
6.658577	8.935000	16.5265
8.658577	8.935000	28.5354
10.6586	8.935000	54.3506
12.6586	8.935000	58.4459
14.6586	8.935000	66.8946
16.6586	8.935000	75.7768
18.6586	8.935000	69.7077
20.6586	8.935000	82.7384
22.6586	8.935000	63.3984
24.6586	8.935000	68.8368
-38.3414	9.935000	80.092
-36.3414	9.935000	78.4004
-34.3414	9.935000	78.0443
-32.3414	9.935000	73.537
-30.3414	9.935000	72.8977
-28.3414	9.935000	66.6462
-26.3414	9.935000	57.391
-24.3414	9.935000	60.9173
-22.3414	9.935000	63.8719
-20.3414	9.935000	59.337
-18.3414	9.935000	62.8328
-16.3414	9.935000	66.4631
-14.3414	9.935000	68.6158
-12.3414	9.935000	65.8782
-10.3414	9.935000	47.3098
-8.341423	9.935000	46.5635
-6.341423	9.935000	72.048
-4.341423	9.935000	67.1239
-2.341423	9.935000	64.0927
-0.341423	9.935000	71.9179
1.658577	9.935000	61.9858
3.658577	9.935000	45.4711
5.658577	9.935000	35.7418
7.658577	9.935000	46.5256
9.658577	9.935000	55.5508
11.6586	9.935000	55.972
13.6586	9.935000	72.4925
15.6586	9.935000	98.0026
17.6586	9.935000	79.5376
19.6586	9.935000	2.089935
21.6586	9.935000	66.5561
23.6586	9.935000	81.2584
-39.3414	10.935	82.9748
-37.3414	10.935	78.8191
-35.3414	10.935	81.1682
-33.3414	10.935	78.075
-31.3414	10.935	73.5303
-29.3414	10.935	72.5355
-27.3414	10.935	65.8078
-25.3414	10.935	62.7972
-23.3414	10.935	77.675
-21.3414	10.935	61.383
-19.3414	10.935	60.7648
-17.3414	10.935	65.9716
-15.3414	10.935	68.75
-13.3414	10.935	67.6347
-11.3414	10.935	54.1464
-9.341423	10.935	46.9783
-7.341423	10.935	60.921
-5.341423	10.935	76.4065
-3.341423	10.935	63.1663
-1.341423	10.935	68.815
0.658577	10.935	66.2639
2.658577	10.935	51.7722
4.658577	10.935	23.9714
6.658577	10.935	37.279
8.658577	10.935	69.7351
10.6586	10.935	69.5659
12.6586	10.935	57.8392
14.6586	10.935	49.1351
16.6586	10.935	0.639823
18.6586	10.935	1.561730
20.6586	10.935	67.8385
22.6586	10.935	74.0987
24.6586	10.935	62.1349
-38.3414	11.935	82.692
-36.3414	11.935	78.7931
-34.3414	11.935	81.0866
-32.3414	11.935	83.3143
-30.3414	11.935	77.9609
-28.3414	11.935	69.0228
-26.3414	11.935	49.9258
-24.3414	11.935	76.0959
-22.3414	11.935	58.5985
-20.3414	11.935	63.7496
-18.3414	11.935	62.201
-16.3414	11.935	53.4065
-14.3414	11.935	68.6425
-12.3414	11.935	60.7476
-10.3414	11.935	50.3392
-8.341423	11.935	46.8979
-6.341423	11.935	58.1776
-4.341423	11.935	73.6466
-2.341423	11.935	69.4365
-0.341423	11.935	72.4163
1.658577	11.935	59.5713
3.658577	11.935	27.2341
5.658577	11.935	47.8116
7.658577	11.935	67.1765
9.658577	11.935	57.5664
11.6586	11.935	60.0206
13.6586	11.935	61.0514
15.6586	11.935	0.639823
17.6586	11.935	0.639823
19.6586	11.935	15.1373
21.6586	11.935	66.2239
23.6586	11.935	66.8886
-39.3414	12.935	81.5199
-37.3414	12.935	80.8842
-35.3414	12.935	81.0084
-33.3414	12.935	74.9799
-31.3414	12.935	75.6842
-29.3414	12.935	72.1307
-27.3414	12.935	58.1528
-25.3414	12.935	64.7042
-23.3414	12.935	66.332
-21.3414	12.935	69.0558
-19.3414	12.935	70.5647
-17.3414	12.935	58.0133
-15.3414	12.935	67.5173
-13.3414	12.935	60.1468
-11.3414	12.935	58.0978
-9.341423	12.935	56.2745
-7.341423	12.935	50.6976
-5.341423	12.935	67.9047
-3.341423	12.935	65.4216
-1.341423	12.935	57.4461
0.658577	12.935	63.5729
2.658577	12.935	63.0188
4.658577	12.935	21.8847
6.658577	12.935	68.7676
8.658577	12.935	60.6996
10.6586	12.935	63.7962
12.6586	12.935	56.0287
14.6586	12.935	104.582
16.6586	12.935	1.358022
18.6586	12.935	24.1446
20.6586	12.935	98.8228
22.6586	12.935	62.9526
24.6586	12.935	68.4523
-38.3414	13.935	78.7173
-36.3414	13.935	77.1828
-34.3414	13.935	75.235
-32.3414	13.935	78.52
-30.3414	13.935	71.9119
-28.3414	13.935	59.2619
-26.3414	13.935	55.9759
-24.3414	13.935	72.2737
-22.3414	13.935	61.1164
-20.3414	13.935	66.7453
-18.3414	13.935	73.7525
-16.3414	13.935	57.4337
-14.3414	13.935	73.7734
-12.3414	13.935	57.9292
-10.3414	13.935	68.8562
-8.341423	13.935	37.4405
-6.341423	13.935	73.3588
-4.341423	13.935	69.0189
-2.341423	13.935	48.8259
-0.341423	13.935	65.2035
1.658577	13.935	56.0154
3.658577	13.935	70.445
5.658577	13.935	64.5357
7.658577	13.935	71.959
9.658577	13.935	63.2165
11.6586	13.935	50.8677
13.6586	13.935	63.1623
15.6586	13.935	66.3361
17.6586	13.935	55.6184
19.6586	13.935	194.693
21.6586	13.935	316.653
23.6586	13.935	46.3798
-39.3414	14.935	78.1179
-37.3414	14.935	76.3092
-35.3414	14.935	74.7147
-33.3414	14.935	81.5005
-31.3414	14.935	79.6195
-29.3414	14.935	75.8953
-27.3414	14.935	62.3763
-25.3414	14.935	59.2489
-23.3414	14.935	65.954
-21.3414	14.935	69.0323
-19.3414	14.935	72.6792
-17.3414	14.935	64.5575
-15.3414	14.935	70.1359
-13.3414	14.935	73.6544
-11.3414	14.935	73.2803
-9.341423	14.935	63.014
-7.341423	14.935	67.08
-5.341423	14.935	44.5584
-3.341423	14.935	64.1973
-1.341423	14.935	68.8578
0.658577	14.935	49.9463
2.658577	14.935	63.6219
4.658577	14.935	103.62
6.658577	14.935	79.473
8.658577	14.935	59.1241
10.6586	14.935	53.7393
12.6586	14.935	66.3982
14.6586	14.935	25.6221
16.6586	14.935	203.891
18.6586	14.935	197.358
20.6586	14.935	3.920141
22.6586	14.935	0.639823
24.6586	14.935	126.781
-38.3414	15.935	74.159
-36.3414	15.935	78.0348
-34.3414	15.935	80.9918
-32.3414	15.935	76.8287
-30.3414	15.935	61.9539
-28.3414	15.935	66.5568
-26.3414	15.935	62.4646
-24.3414	15.935	57.3066
-22.3414	15.935	77.2396
-20.3414	15.935	59.0295
-18.3414	15.935	72.4717
-16.3414	15.935	77.7454
-14.3414	15.935	75.2684
-12.3414	15.935	74.8789
-10.3414	15.935	78.1272
-8.341423	15.935	72.5569
-6.341423	15.935	60.3888
-4.341423	15.935	23.4415
-2.341423	15.935	55.4175
-0.341423	15.935	52.4906
1.658577	15.935	59.3846
3.658577	15.935	67.7234
5.658577	15.935	2385.35
7.658577	15.935	65.7757
9.658577	15.935	58.9384
11.6586	15.935	63.8382
13.6586	15.935	70.5384
15.6586	15.935	0.937370
17.6586	15.935	0.639823
19.6586	15.935	0.639823
21.6586	15.935	570.749
23.6586	15.935	0.639823
24.6586	15.935	0.827329