File: data/derived_data/raman/20170920_Gr-NH2_for_Radisurf/20170920 Gr-NH for Radisurf map 2/G int.txt
#XList		#YList		#IList
-39.3414	-21.065	246.077
-37.3414	-21.065	171.697
-35.3414	-21.065	192.07
-33.3414	-21.065	901.953
-31.3414	-21.065	612.924
-29.3414	-21.065	399.814
-27.3414	-21.065	360.366
-25.3414	-21.065	216.512
-23.3414	-21.065	7.519130
-21.3414	-21.065	222.282
-19.3414	-21.065	12.8207
-17.3414	-21.065	166.273
-15.3414	-21.065	875.679
-13.3414	-21.065	492.466
-11.3414	-21.065	110.662
-9.341423	-21.065	23.0298
-7.341423	-21.065	547.963
-5.341423	-21.065	519.883
-3.341423	-21.065	63.4104
-1.341423	-21.065	469.194
0.658577	-21.065	471.559
2.658577	-21.065	399.499
4.658577	-21.065	294.99
6.658577	-21.065	22.7559
8.658577	-21.065	9.776747
10.6586	-21.065	235.968
12.6586	-21.065	483.11
14.6586	-21.065	613.526
16.6586	-21.065	265.991
18.6586	-21.065	640.368
20.6586	-21.065	241.582
22.6586	-21.065	10.5247
24.6586	-21.065	0.000000
-38.3414	-20.065	292.923
-36.3414	-20.065	199.095
-34.3414	-20.065	366.905
-32.3414	-20.065	901.574
-30.3414	-20.065	766.706
-28.3414	-20.065	531.268
-26.3414	-20.065	658.856
-24.3414	-20.065	507.32
-22.3414	-20.065	55.5798
-20.3414	-20.065	337.568
-18.3414	-20.065	260.572
-16.3414	-20.065	860.407
-14.3414	-20.065	653.602
-12.3414	-20.065	695.944
-10.3414	-20.065	80.324
-8.341423	-20.065	527.916
-6.341423	-20.065	645.568
-4.341423	-20.065	121.514
-2.341423	-20.065	692.555
-0.341423	-20.065	457.957
1.658577	-20.065	361.885
3.658577	-20.065	292.092
5.658577	-20.065	230.055
7.658577	-20.065	2.011276
9.658577	-20.065	277.071
11.6586	-20.065	530.353
13.6586	-20.065	583.25
15.6586	-20.065	518.129
17.6586	-20.065	328.378
19.6586	-20.065	440.189
21.6586	-20.065	329.317
23.6586	-20.065	3.313710
-39.3414	-19.065	366.427
-37.3414	-19.065	191.603
-35.3414	-19.065	279.838
-33.3414	-19.065	418.67
-31.3414	-19.065	715.583
-29.3414	-19.065	655.312
-27.3414	-19.065	577.509
-25.3414	-19.065	595.21
-23.3414	-19.065	643.473
-21.3414	-19.065	672.439
-19.3414	-19.065	654.553
-17.3414	-19.065	764.45
-15.3414	-19.065	828.592
-13.3414	-19.065	704.51
-11.3414	-19.065	284.027
-9.341423	-19.065	658.382
-7.341423	-19.065	679.034
-5.341423	-19.065	472.71
-3.341423	-19.065	805.072
-1.341423	-19.065	383.326
0.658577	-19.065	251.475
2.658577	-19.065	332.932
4.658577	-19.065	353.868
6.658577	-19.065	21.4255
8.658577	-19.065	189.515
10.6586	-19.065	418.741
12.6586	-19.065	345.805
14.6586	-19.065	387.374
16.6586	-19.065	481.69
18.6586	-19.065	677.582
20.6586	-19.065	520.098
22.6586	-19.065	20.9504
24.6586	-19.065	15.6044
-38.3414	-18.065	270.806
-36.3414	-18.065	338.792
-34.3414	-18.065	14.2496
-32.3414	-18.065	721.229
-30.3414	-18.065	617.267
-28.3414	-18.065	527.492
-26.3414	-18.065	369.424
-24.3414	-18.065	663.967
-22.3414	-18.065	646.567
-20.3414	-18.065	711.857
-18.3414	-18.065	399.254
-16.3414	-18.065	612.096
-14.3414	-18.065	840.983
-12.3414	-18.065	620.74
-10.3414	-18.065	728.883
-8.341423	-18.065	654.043
-6.341423	-18.065	679.356
-4.341423	-18.065	428.415
-2.341423	-18.065	488.764
-0.341423	-18.065	356.977
1.658577	-18.065	233.977
3.658577	-18.065	323.394
5.658577	-18.065	179.878
7.658577	-18.065	583.387
9.658577	-18.065	371.625
11.6586	-18.065	558.207
13.6586	-18.065	513.135
15.6586	-18.065	579.246
17.6586	-18.065	537.915
19.6586	-18.065	286.158
21.6586	-18.065	147.395
23.6586	-18.065	603.804
-39.3414	-17.065	641.868
-37.3414	-17.065	781.016
-35.3414	-17.065	20.2308
-33.3414	-17.065	36.7286
-31.3414	-17.065	568.458
-29.3414	-17.065	311.808
-27.3414	-17.065	527.727
-25.3414	-17.065	587.412
-23.3414	-17.065	689.936
-21.3414	-17.065	631.613
-19.3414	-17.065	174.489
-17.3414	-17.065	296.406
-15.3414	-17.065	922.971
-13.3414	-17.065	683.666
-11.3414	-17.065	626.207
-9.341423	-17.065	659.639
-7.341423	-17.065	118.189
-5.341423	-17.065	651.314
-3.341423	-17.065	432.591
-1.341423	-17.065	475.375
0.658577	-17.065	314.674
2.658577	-17.065	244.032
4.658577	-17.065	536.933
6.658577	-17.065	491.574
8.658577	-17.065	381.586
10.6586	-17.065	352.805
12.6586	-17.065	464.937
14.6586	-17.065	522.821
16.6586	-17.065	221.218
18.6586	-17.065	596.299
20.6586	-17.065	48.4453
22.6586	-17.065	258.122
24.6586	-17.065	517.201
-38.3414	-16.065	352.366
-36.3414	-16.065	70.7181
-34.3414	-16.065	147.719
-32.3414	-16.065	670.139
-30.3414	-16.065	312.119
-28.3414	-16.065	562.598
-26.3414	-16.065	313.869
-24.3414	-16.065	630.066
-22.3414	-16.065	655.305
-20.3414	-16.065	72.1634
-18.3414	-16.065	56.6354
-16.3414	-16.065	807.988
-14.3414	-16.065	967.492
-12.3414	-16.065	713.672
-10.3414	-16.065	503.862
-8.341423	-16.065	237.865
-6.341423	-16.065	735.438
-4.341423	-16.065	547.573
-2.341423	-16.065	201.898
-0.341423	-16.065	574.864
1.658577	-16.065	230.246
3.658577	-16.065	219.27
5.658577	-16.065	589.409
7.658577	-16.065	319.008
9.658577	-16.065	607.695
11.6586	-16.065	621.081
13.6586	-16.065	99.7499
15.6586	-16.065	425.559
17.6586	-16.065	544.909
19.6586	-16.065	491.193
21.6586	-16.065	582.66
23.6586	-16.065	663.094
-39.3414	-15.065	166.596
-37.3414	-15.065	92.9801
-35.3414	-15.065	795.542
-33.3414	-15.065	835.045
-31.3414	-15.065	431.777
-29.3414	-15.065	534.869
-27.3414	-15.065	354.034
-25.3414	-15.065	594.954
-23.3414	-15.065	560.793
-21.3414	-15.065	425.8
-19.3414	-15.065	24.1556
-17.3414	-15.065	539.325
-15.3414	-15.065	683.343
-13.3414	-15.065	624.241
-11.3414	-15.065	285.618
-9.341423	-15.065	476.843
-7.341423	-15.065	390.405
-5.341423	-15.065	465.321
-3.341423	-15.065	216.744
-1.341423	-15.065	207.7
0.658577	-15.065	624.055
2.658577	-15.065	263.075
4.658577	-15.065	522.789
6.658577	-15.065	521.505
8.658577	-15.065	378.268
10.6586	-15.065	381.321
12.6586	-15.065	62.5904
14.6586	-15.065	224.933
16.6586	-15.065	286.957
18.6586	-15.065	592.876
20.6586	-15.065	134.814
22.6586	-15.065	693.482
24.6586	-15.065	165.609
-38.3414	-14.065	138.301
-36.3414	-14.065	782.984
-34.3414	-14.065	604.22
-32.3414	-14.065	811.334
-30.3414	-14.065	380.627
-28.3414	-14.065	484.773
-26.3414	-14.065	569.185
-24.3414	-14.065	541.075
-22.3414	-14.065	550.199
-20.3414	-14.065	312.179
-18.3414	-14.065	263.39
-16.3414	-14.065	295.394
-14.3414	-14.065	562.921
-12.3414	-14.065	299.178
-10.3414	-14.065	399.125
-8.341423	-14.065	227.612
-6.341423	-14.065	339.88
-4.341423	-14.065	211.023
-2.341423	-14.065	155.873
-0.341423	-14.065	442.617
1.658577	-14.065	406.367
3.658577	-14.065	191.047
5.658577	-14.065	436.917
7.658577	-14.065	448.096
9.658577	-14.065	496.857
11.6586	-14.065	34.9917
13.6586	-14.065	324.185
15.6586	-14.065	9.506843
17.6586	-14.065	48.6146
19.6586	-14.065	232.823
21.6586	-14.065	570.001
23.6586	-14.065	420.292
-39.3414	-13.065	412.65
-37.3414	-13.065	785.752
-35.3414	-13.065	662.11
-33.3414	-13.065	743.287
-31.3414	-13.065	660.09
-29.3414	-13.065	429.425
-27.3414	-13.065	508.725
-25.3414	-13.065	606.845
-23.3414	-13.065	609.837
-21.3414	-13.065	330.01
-19.3414	-13.065	340.207
-17.3414	-13.065	134.893
-15.3414	-13.065	294.478
-13.3414	-13.065	21.6074
-11.3414	-13.065	374.17
-9.341423	-13.065	248.684
-7.341423	-13.065	281.097
-5.341423	-13.065	328.184
-3.341423	-13.065	301.891
-1.341423	-13.065	329.296
0.658577	-13.065	464.299
2.658577	-13.065	245.499
4.658577	-13.065	272.737
6.658577	-13.065	399.554
8.658577	-13.065	467.881
10.6586	-13.065	37.6987
12.6586	-13.065	65.269
14.6586	-13.065	366.166
16.6586	-13.065	149.192
18.6586	-13.065	603.12
20.6586	-13.065	771.067
22.6586	-13.065	592.203
24.6586	-13.065	480.819
-38.3414	-12.065	774.651
-36.3414	-12.065	796.216
-34.3414	-12.065	684.984
-32.3414	-12.065	660.526
-30.3414	-12.065	609.125
-28.3414	-12.065	543.211
-26.3414	-12.065	417.127
-24.3414	-12.065	359.954
-22.3414	-12.065	360.316
-20.3414	-12.065	364.648
-18.3414	-12.065	197.619
-16.3414	-12.065	125.758
-14.3414	-12.065	50.7895
-12.3414	-12.065	512.9
-10.3414	-12.065	392.668
-8.341423	-12.065	249.118
-6.341423	-12.065	501.23
-4.341423	-12.065	206.481
-2.341423	-12.065	470.767
-0.341423	-12.065	444.08
1.658577	-12.065	224.899
3.658577	-12.065	225.775
5.658577	-12.065	324.159
7.658577	-12.065	486.34
9.658577	-12.065	34.426
11.6586	-12.065	15.9848
13.6586	-12.065	239.783
15.6586	-12.065	584.976
17.6586	-12.065	691.775
19.6586	-12.065	569.042
21.6586	-12.065	539.312
23.6586	-12.065	585.513
-39.3414	-11.065	747.067
-37.3414	-11.065	767.588
-35.3414	-11.065	980.528
-33.3414	-11.065	646.546
-31.3414	-11.065	608.281
-29.3414	-11.065	728.125
-27.3414	-11.065	574.193
-25.3414	-11.065	573.269
-23.3414	-11.065	609.831
-21.3414	-11.065	211.943
-19.3414	-11.065	469.152
-17.3414	-11.065	205.099
-15.3414	-11.065	384.589
-13.3414	-11.065	124.304
-11.3414	-11.065	427.485
-9.341423	-11.065	156.65
-7.341423	-11.065	319.605
-5.341423	-11.065	231.877
-3.341423	-11.065	223.405
-1.341423	-11.065	339.124
0.658577	-11.065	238.428
2.658577	-11.065	478.763
4.658577	-11.065	191.293
6.658577	-11.065	571.736
8.658577	-11.065	646.6
10.6586	-11.065	1.686654
12.6586	-11.065	44.811
14.6586	-11.065	563.792
16.6586	-11.065	347.882
18.6586	-11.065	497.112
20.6586	-11.065	300.303
22.6586	-11.065	472.971
24.6586	-11.065	476.342
-38.3414	-10.065	665.725
-36.3414	-10.065	587.202
-34.3414	-10.065	631.557
-32.3414	-10.065	797.129
-30.3414	-10.065	675.685
-28.3414	-10.065	703.007
-26.3414	-10.065	741.911
-24.3414	-10.065	631.288
-22.3414	-10.065	63.7924
-20.3414	-10.065	387.021
-18.3414	-10.065	369.361
-16.3414	-10.065	390.584
-14.3414	-10.065	384.695
-12.3414	-10.065	382.019
-10.3414	-10.065	231.385
-8.341423	-10.065	189.935
-6.341423	-10.065	170.361
-4.341423	-10.065	145.422
-2.341423	-10.065	185.351
-0.341423	-10.065	358.295
1.658577	-10.065	481.293
3.658577	-10.065	222.189
5.658577	-10.065	298.545
7.658577	-10.065	526.664
9.658577	-10.065	9.021104
11.6586	-10.065	5.602630
13.6586	-10.065	527.172
15.6586	-10.065	560.827
17.6586	-10.065	493.409
19.6586	-10.065	467.611
21.6586	-10.065	547.881
23.6586	-10.065	453.3
-39.3414	-9.065000	687.28
-37.3414	-9.065000	579.301
-35.3414	-9.065000	760.608
-33.3414	-9.065000	756.05
-31.3414	-9.065000	745.929
-29.3414	-9.065000	717.694
-27.3414	-9.065000	734.462
-25.3414	-9.065000	329.553
-23.3414	-9.065000	33.8171
-21.3414	-9.065000	31.8498
-19.3414	-9.065000	379.386
-17.3414	-9.065000	313.541
-15.3414	-9.065000	872.33
-13.3414	-9.065000	254.246
-11.3414	-9.065000	774.47
-9.341423	-9.065000	211.052
-7.341423	-9.065000	263.25
-5.341423	-9.065000	113.426
-3.341423	-9.065000	156.945
-1.341423	-9.065000	241.09
0.658577	-9.065000	327.492
2.658577	-9.065000	214.384
4.658577	-9.065000	369.635
6.658577	-9.065000	492.146
8.658577	-9.065000	31.2181
10.6586	-9.065000	0.713060
12.6586	-9.065000	282.842
14.6586	-9.065000	360.067
16.6586	-9.065000	474.306
18.6586	-9.065000	484.445
20.6586	-9.065000	483.797
22.6586	-9.065000	501.221
24.6586	-9.065000	110.772
-38.3414	-8.065000	493.409
-36.3414	-8.065000	760.233
-34.3414	-8.065000	848.635
-32.3414	-8.065000	933.998
-30.3414	-8.065000	620.619
-28.3414	-8.065000	639.123
-26.3414	-8.065000	504.508
-24.3414	-8.065000	384.34
-22.3414	-8.065000	45.6825
-20.3414	-8.065000	456.473
-18.3414	-8.065000	406.206
-16.3414	-8.065000	489.682
-14.3414	-8.065000	388.27
-12.3414	-8.065000	580.383
-10.3414	-8.065000	362.96
-8.341423	-8.065000	400.237
-6.341423	-8.065000	202.668
-4.341423	-8.065000	138.138
-2.341423	-8.065000	105.896
-0.341423	-8.065000	126.629
1.658577	-8.065000	72.3567
3.658577	-8.065000	299.156
5.658577	-8.065000	464.911
7.658577	-8.065000	368.173
9.658577	-8.065000	1.357255
11.6586	-8.065000	1.354721
13.6586	-8.065000	502.901
15.6586	-8.065000	317.039
17.6586	-8.065000	590.577
19.6586	-8.065000	496.543
21.6586	-8.065000	489.09
23.6586	-8.065000	525.987
-39.3414	-7.065000	654.33
-37.3414	-7.065000	681.107
-35.3414	-7.065000	819.432
-33.3414	-7.065000	883.082
-31.3414	-7.065000	679.119
-29.3414	-7.065000	602.625
-27.3414	-7.065000	270.817
-25.3414	-7.065000	641.167
-23.3414	-7.065000	304.455
-21.3414	-7.065000	505.881
-19.3414	-7.065000	488.012
-17.3414	-7.065000	586.185
-15.3414	-7.065000	454.516
-13.3414	-7.065000	325.692
-11.3414	-7.065000	394.158
-9.341423	-7.065000	597.149
-7.341423	-7.065000	48.4558
-5.341423	-7.065000	24.6713
-3.341423	-7.065000	273.318
-1.341423	-7.065000	23.8911
0.658577	-7.065000	14.2791
2.658577	-7.065000	444.96
4.658577	-7.065000	483.157
6.658577	-7.065000	150.058
8.658577	-7.065000	9.617140
10.6586	-7.065000	189.651
12.6586	-7.065000	63.0511
14.6586	-7.065000	931.961
16.6586	-7.065000	517.296
18.6586	-7.065000	522.759
20.6586	-7.065000	621.461
22.6586	-7.065000	502.741
24.6586	-7.065000	210.31
-38.3414	-6.065000	576.305
-36.3414	-6.065000	715.649
-34.3414	-6.065000	771.838
-32.3414	-6.065000	827.06
-30.3414	-6.065000	624.055
-28.3414	-6.065000	732.974
-26.3414	-6.065000	709.483
-24.3414	-6.065000	797.263
-22.3414	-6.065000	766.488
-20.3414	-6.065000	299.361
-18.3414	-6.065000	14.2008
-16.3414	-6.065000	452.476
-14.3414	-6.065000	538.144
-12.3414	-6.065000	450.498
-10.3414	-6.065000	554.124
-8.341423	-6.065000	766.454
-6.341423	-6.065000	283.799
-4.341423	-6.065000	5.897069
-2.341423	-6.065000	206.209
-0.341423	-6.065000	7.032911
1.658577	-6.065000	9.745731
3.658577	-6.065000	611.674
5.658577	-6.065000	615.388
7.658577	-6.065000	430.62
9.658577	-6.065000	44.2187
11.6586	-6.065000	446.132
13.6586	-6.065000	729.818
15.6586	-6.065000	688.941
17.6586	-6.065000	559.277
19.6586	-6.065000	509.056
21.6586	-6.065000	544.787
23.6586	-6.065000	519.633
-39.3414	-5.065000	57.7163
-37.3414	-5.065000	612.417
-35.3414	-5.065000	521.138
-33.3414	-5.065000	840.969
-31.3414	-5.065000	836.969
-29.3414	-5.065000	667.488
-27.3414	-5.065000	844.933
-25.3414	-5.065000	760.377
-23.3414	-5.065000	545.089
-21.3414	-5.065000	596.461
-19.3414	-5.065000	16.8439
-17.3414	-5.065000	34.8879
-15.3414	-5.065000	462.9
-13.3414	-5.065000	649.388
-11.3414	-5.065000	774.928
-9.341423	-5.065000	780.738
-7.341423	-5.065000	548.842
-5.341423	-5.065000	367.813
-3.341423	-5.065000	3.277544
-1.341423	-5.065000	81.7919
0.658577	-5.065000	270.791
2.658577	-5.065000	21.9293
4.658577	-5.065000	433.705
6.658577	-5.065000	472.108
8.658577	-5.065000	54.3933
10.6586	-5.065000	621.42
12.6586	-5.065000	699.185
14.6586	-5.065000	893.902
16.6586	-5.065000	613.996
18.6586	-5.065000	554.983
20.6586	-5.065000	572.851
22.6586	-5.065000	145.982
24.6586	-5.065000	206.004
-38.3414	-4.065000	117.921
-36.3414	-4.065000	608.056
-34.3414	-4.065000	661.802
-32.3414	-4.065000	456.238
-30.3414	-4.065000	337.073
-28.3414	-4.065000	272.827
-26.3414	-4.065000	885.635
-24.3414	-4.065000	658.294
-22.3414	-4.065000	385.004
-20.3414	-4.065000	489.131
-18.3414	-4.065000	103.602
-16.3414	-4.065000	169.571
-14.3414	-4.065000	528.334
-12.3414	-4.065000	408.404
-10.3414	-4.065000	618.157
-8.341423	-4.065000	372.895
-6.341423	-4.065000	452.218
-4.341423	-4.065000	34.9778
-2.341423	-4.065000	12.1651
-0.341423	-4.065000	235.561
1.658577	-4.065000	229.457
3.658577	-4.065000	25.4629
5.658577	-4.065000	344.418
7.658577	-4.065000	477.033
9.658577	-4.065000	519.616
11.6586	-4.065000	483.751
13.6586	-4.065000	875.428
15.6586	-4.065000	134.017
17.6586	-4.065000	725.968
19.6586	-4.065000	603.12
21.6586	-4.065000	555.129
23.6586	-4.065000	356.8
-39.3414	-3.065000	3.178869
-37.3414	-3.065000	294.791
-35.3414	-3.065000	754.87
-33.3414	-3.065000	518.483
-31.3414	-3.065000	133.82
-29.3414	-3.065000	70.245
-27.3414	-3.065000	215.146
-25.3414	-3.065000	748.594
-23.3414	-3.065000	603.645
-21.3414	-3.065000	763.557
-19.3414	-3.065000	553.521
-17.3414	-3.065000	451.645
-15.3414	-3.065000	425.539
-13.3414	-3.065000	509.637
-11.3414	-3.065000	394.284
-9.341423	-3.065000	415.788
-7.341423	-3.065000	249.994
-5.341423	-3.065000	456.538
-3.341423	-3.065000	112.474
-1.341423	-3.065000	677.846
0.658577	-3.065000	669.266
2.658577	-3.065000	36.5097
4.658577	-3.065000	53.0189
6.658577	-3.065000	734.523
8.658577	-3.065000	471.009
10.6586	-3.065000	350.875
12.6586	-3.065000	796.684
14.6586	-3.065000	768.21
16.6586	-3.065000	759.065
18.6586	-3.065000	689.035
20.6586	-3.065000	576.725
22.6586	-3.065000	74.7902
24.6586	-3.065000	359.425
-38.3414	-2.065000	176.533
-36.3414	-2.065000	81.5094
-34.3414	-2.065000	138.979
-32.3414	-2.065000	32.6276
-30.3414	-2.065000	495.265
-28.3414	-2.065000	3.556918
-26.3414	-2.065000	477.901
-24.3414	-2.065000	622.824
-22.3414	-2.065000	544.049
-20.3414	-2.065000	236.447
-18.3414	-2.065000	48.7896
-16.3414	-2.065000	435.386
-14.3414	-2.065000	607.825
-12.3414	-2.065000	499.119
-10.3414	-2.065000	563.796
-8.341423	-2.065000	379.376
-6.341423	-2.065000	378.016
-4.341423	-2.065000	349.712
-2.341423	-2.065000	499.369
-0.341423	-2.065000	785.363
1.658577	-2.065000	405.697
3.658577	-2.065000	200.795
5.658577	-2.065000	496.328
7.658577	-2.065000	641.735
9.658577	-2.065000	311.586
11.6586	-2.065000	538.404
13.6586	-2.065000	736.403
15.6586	-2.065000	954.968
17.6586	-2.065000	654.078
19.6586	-2.065000	672.036
21.6586	-2.065000	38.7434
23.6586	-2.065000	348.452
-39.3414	-1.065000	29.7994
-37.3414	-1.065000	205.873
-35.3414	-1.065000	132.284
-33.3414	-1.065000	378.475
-31.3414	-1.065000	310.375
-29.3414	-1.065000	20.3363
-27.3414	-1.065000	14.7343
-25.3414	-1.065000	555.925
-23.3414	-1.065000	265.508
-21.3414	-1.065000	192.638
-19.3414	-1.065000	42.5254
-17.3414	-1.065000	387.544
-15.3414	-1.065000	605.475
-13.3414	-1.065000	391.915
-11.3414	-1.065000	553.887
-9.341423	-1.065000	386.143
-7.341423	-1.065000	370.536
-5.341423	-1.065000	509.553
-3.341423	-1.065000	474.682
-1.341423	-1.065000	614.797
0.658577	-1.065000	584.79
2.658577	-1.065000	500.124
4.658577	-1.065000	427.874
6.658577	-1.065000	203.031
8.658577	-1.065000	168.114
10.6586	-1.065000	550.611
12.6586	-1.065000	774.604
14.6586	-1.065000	624.267
16.6586	-1.065000	621.237
18.6586	-1.065000	147.843
20.6586	-1.065000	226.713
22.6586	-1.065000	216.591
24.6586	-1.065000	339.763
-38.3414	-0.065000	120.666
-36.3414	-0.065000	137.636
-34.3414	-0.065000	203.506
-32.3414	-0.065000	160.849
-30.3414	-0.065000	160.292
-28.3414	-0.065000	13.9242
-26.3414	-0.065000	101.043
-24.3414	-0.065000	619.38
-22.3414	-0.065000	100.114
-20.3414	-0.065000	114.31
-18.3414	-0.065000	538.773
-16.3414	-0.065000	519.095
-14.3414	-0.065000	557.605
-12.3414	-0.065000	536.634
-10.3414	-0.065000	525.368
-8.341423	-0.065000	529.497
-6.341423	-0.065000	509.685
-4.341423	-0.065000	697.337
-2.341423	-0.065000	604.634
-0.341423	-0.065000	663.097
1.658577	-0.065000	620.454
3.658577	-0.065000	537.76
5.658577	-0.065000	685.586
7.658577	-0.065000	431.489
9.658577	-0.065000	647.125
11.6586	-0.065000	813.433
13.6586	-0.065000	854.572
15.6586	-0.065000	372.687
17.6586	-0.065000	542.073
19.6586	-0.065000	83.3895
21.6586	-0.065000	553.262
23.6586	-0.065000	343.528
-39.3414	0.935000	124.212
-37.3414	0.935000	124.529
-35.3414	0.935000	175.249
-33.3414	0.935000	293.44
-31.3414	0.935000	338.817
-29.3414	0.935000	25.8053
-27.3414	0.935000	23.9457
-25.3414	0.935000	643.825
-23.3414	0.935000	872.022
-21.3414	0.935000	365.303
-19.3414	0.935000	635.263
-17.3414	0.935000	445.829
-15.3414	0.935000	151.649
-13.3414	0.935000	519.59
-11.3414	0.935000	517.896
-9.341423	0.935000	521.192
-7.341423	0.935000	417.513
-5.341423	0.935000	721.537
-3.341423	0.935000	280.017
-1.341423	0.935000	737.263
0.658577	0.935000	583.298
2.658577	0.935000	468.057
4.658577	0.935000	443.23
6.658577	0.935000	919.608
8.658577	0.935000	792.403
10.6586	0.935000	708.986
12.6586	0.935000	854.417
14.6586	0.935000	420.767
16.6586	0.935000	379.373
18.6586	0.935000	288.152
20.6586	0.935000	523.133
22.6586	0.935000	575.115
24.6586	0.935000	350.186
-38.3414	1.935000	137.783
-36.3414	1.935000	317.666
-34.3414	1.935000	228.176
-32.3414	1.935000	649.877
-30.3414	1.935000	402.808
-28.3414	1.935000	12.0224
-26.3414	1.935000	393.381
-24.3414	1.935000	279.724
-22.3414	1.935000	524.241
-20.3414	1.935000	543.896
-18.3414	1.935000	42.8624
-16.3414	1.935000	17.0655
-14.3414	1.935000	842.122
-12.3414	1.935000	1066.54
-10.3414	1.935000	529.543
-8.341423	1.935000	351.39
-6.341423	1.935000	570.355
-4.341423	1.935000	674.462
-2.341423	1.935000	573.806
-0.341423	1.935000	592.974
1.658577	1.935000	202.513
3.658577	1.935000	318.081
5.658577	1.935000	621.457
7.658577	1.935000	538.652
9.658577	1.935000	637.77
11.6586	1.935000	600.325
13.6586	1.935000	806.491
15.6586	1.935000	525.86
17.6586	1.935000	504.387
19.6586	1.935000	276.947
21.6586	1.935000	437.362
23.6586	1.935000	700.961
-39.3414	2.935000	162.091
-37.3414	2.935000	381.182
-35.3414	2.935000	289.359
-33.3414	2.935000	239.815
-31.3414	2.935000	619.213
-29.3414	2.935000	541.291
-27.3414	2.935000	467.834
-25.3414	2.935000	760.109
-23.3414	2.935000	356.355
-21.3414	2.935000	578.224
-19.3414	2.935000	115.299
-17.3414	2.935000	16.5496
-15.3414	2.935000	12.6492
-13.3414	2.935000	251.864
-11.3414	2.935000	612.134
-9.341423	2.935000	492.027
-7.341423	2.935000	535.631
-5.341423	2.935000	695.624
-3.341423	2.935000	719.549
-1.341423	2.935000	525.644
0.658577	2.935000	609
2.658577	2.935000	540.94
4.658577	2.935000	447.448
6.658577	2.935000	55.5493
8.658577	2.935000	549.084
10.6586	2.935000	669.08
12.6586	2.935000	538.377
14.6586	2.935000	856.004
16.6586	2.935000	495.602
18.6586	2.935000	147.151
20.6586	2.935000	187.452
22.6586	2.935000	569.998
24.6586	2.935000	310.614
-38.3414	3.935000	467.331
-36.3414	3.935000	693.179
-34.3414	3.935000	173.176
-32.3414	3.935000	368.04
-30.3414	3.935000	686.786
-28.3414	3.935000	764.678
-26.3414	3.935000	803.696
-24.3414	3.935000	316.317
-22.3414	3.935000	436.88
-20.3414	3.935000	630.172
-18.3414	3.935000	427.584
-16.3414	3.935000	51.6322
-14.3414	3.935000	33.5884
-12.3414	3.935000	626.757
-10.3414	3.935000	946.354
-8.341423	3.935000	517.553
-6.341423	3.935000	272.43
-4.341423	3.935000	113.948
-2.341423	3.935000	735.999
-0.341423	3.935000	746.707
1.658577	3.935000	726.816
3.658577	3.935000	368.123
5.658577	3.935000	797.933
7.658577	3.935000	347.579
9.658577	3.935000	702.859
11.6586	3.935000	625.784
13.6586	3.935000	901.176
15.6586	3.935000	739.016
17.6586	3.935000	425.909
19.6586	3.935000	745.055
21.6586	3.935000	634.888
23.6586	3.935000	445.666
-39.3414	4.935000	648.562
-37.3414	4.935000	821.571
-35.3414	4.935000	847.613
-33.3414	4.935000	212.125
-31.3414	4.935000	637.969
-29.3414	4.935000	544.21
-27.3414	4.935000	422.736
-25.3414	4.935000	672.334
-23.3414	4.935000	494.287
-21.3414	4.935000	558.427
-19.3414	4.935000	548.22
-17.3414	4.935000	608.987
-15.3414	4.935000	429.398
-13.3414	4.935000	26.2861
-11.3414	4.935000	666.693
-9.341423	4.935000	894.014
-7.341423	4.935000	558.447
-5.341423	4.935000	44.1725
-3.341423	4.935000	569.224
-1.341423	4.935000	632.569
0.658577	4.935000	738.123
2.658577	4.935000	400.832
4.658577	4.935000	297.803
6.658577	4.935000	845.78
8.658577	4.935000	860.993
10.6586	4.935000	466.057
12.6586	4.935000	557.415
14.6586	4.935000	893.774
16.6586	4.935000	760.18
18.6586	4.935000	782.789
20.6586	4.935000	758.515
22.6586	4.935000	657.547
24.6586	4.935000	204.207
-38.3414	5.935000	671.017
-36.3414	5.935000	716.006
-34.3414	5.935000	560.175
-32.3414	5.935000	447.846
-30.3414	5.935000	89.0137
-28.3414	5.935000	21.5371
-26.3414	5.935000	620.956
-24.3414	5.935000	475.109
-22.3414	5.935000	335.069
-20.3414	5.935000	195.419
-18.3414	5.935000	531.351
-16.3414	5.935000	533.964
-14.3414	5.935000	538.955
-12.3414	5.935000	118.983
-10.3414	5.935000	654.98
-8.341423	5.935000	689.676
-6.341423	5.935000	643.134
-4.341423	5.935000	65.3927
-2.341423	5.935000	671.523
-0.341423	5.935000	699.525
1.658577	5.935000	688.02
3.658577	5.935000	381.289
5.658577	5.935000	324.57
7.658577	5.935000	624.717
9.658577	5.935000	864.101
11.6586	5.935000	838.862
13.6586	5.935000	779.288
15.6586	5.935000	733.593
17.6586	5.935000	190.79
19.6586	5.935000	556.16
21.6586	5.935000	901.44
23.6586	5.935000	329.966
-39.3414	6.935000	876.867
-37.3414	6.935000	820.94
-35.3414	6.935000	622.223
-33.3414	6.935000	468.383
-31.3414	6.935000	436.518
-29.3414	6.935000	510.068
-27.3414	6.935000	206.585
-25.3414	6.935000	491.259
-23.3414	6.935000	373.453
-21.3414	6.935000	404.966
-19.3414	6.935000	732.582
-17.3414	6.935000	520.928
-15.3414	6.935000	795.202
-13.3414	6.935000	421.391
-11.3414	6.935000	253.43
-9.341423	6.935000	493.907
-7.341423	6.935000	556.507
-5.341423	6.935000	226.647
-3.341423	6.935000	626.811
-1.341423	6.935000	746.095
0.658577	6.935000	732.22
2.658577	6.935000	494.792
4.658577	6.935000	176.078
6.658577	6.935000	681.798
8.658577	6.935000	588.992
10.6586	6.935000	782.006
12.6586	6.935000	802.769
14.6586	6.935000	107.699
16.6586	6.935000	260.121
18.6586	6.935000	684.112
20.6586	6.935000	879.867
22.6586	6.935000	249.353
24.6586	6.935000	344.929
-38.3414	7.935000	833.761
-36.3414	7.935000	810.137
-34.3414	7.935000	621.455
-32.3414	7.935000	537.763
-30.3414	7.935000	882.65
-28.3414	7.935000	311.249
-26.3414	7.935000	590.443
-24.3414	7.935000	535.815
-22.3414	7.935000	373.69
-20.3414	7.935000	534.63
-18.3414	7.935000	714.32
-16.3414	7.935000	630.387
-14.3414	7.935000	407.032
-12.3414	7.935000	615.63
-10.3414	7.935000	314.912
-8.341423	7.935000	383.383
-6.341423	7.935000	488.385
-4.341423	7.935000	327.309
-2.341423	7.935000	641.743
-0.341423	7.935000	673.609
1.658577	7.935000	735.689
3.658577	7.935000	506.176
5.658577	7.935000	411.607
7.658577	7.935000	454.118
9.658577	7.935000	700.899
11.6586	7.935000	691.562
13.6586	7.935000	549.676
15.6586	7.935000	406.31
17.6586	7.935000	532.611
19.6586	7.935000	41.1773
21.6586	7.935000	676.025
23.6586	7.935000	538.899
-39.3414	8.935000	837.992
-37.3414	8.935000	698.575
-35.3414	8.935000	814.912
-33.3414	8.935000	662.87
-31.3414	8.935000	656.715
-29.3414	8.935000	664.807
-27.3414	8.935000	606.684
-25.3414	8.935000	597.418
-23.3414	8.935000	402.977
-21.3414	8.935000	390.03
-19.3414	8.935000	627.461
-17.3414	8.935000	538.902
-15.3414	8.935000	904.111
-13.3414	8.935000	769.047
-11.3414	8.935000	343.437
-9.341423	8.935000	337.263
-7.341423	8.935000	454.023
-5.341423	8.935000	612.977
-3.341423	8.935000	648.253
-1.341423	8.935000	682.025
0.658577	8.935000	631.956
2.658577	8.935000	412.256
4.658577	8.935000	743.9
6.658577	8.935000	450.668
8.658577	8.935000	426.243
10.6586	8.935000	611.47
12.6586	8.935000	753.117
14.6586	8.935000	328.698
16.6586	8.935000	64.2911
18.6586	8.935000	36.3087
20.6586	8.935000	13.0267
22.6586	8.935000	42.6058
24.6586	8.935000	334.304
-38.3414	9.935000	645.86
-36.3414	9.935000	613.929
-34.3414	9.935000	720.835
-32.3414	9.935000	716.063
-30.3414	9.935000	510.744
-28.3414	9.935000	650.672
-26.3414	9.935000	500.995
-24.3414	9.935000	143.889
-22.3414	9.935000	626.83
-20.3414	9.935000	550.931
-18.3414	9.935000	692.42
-16.3414	9.935000	685.732
-14.3414	9.935000	708.475
-12.3414	9.935000	537.007
-10.3414	9.935000	365.747
-8.341423	9.935000	336.921
-6.341423	9.935000	804.595
-4.341423	9.935000	981.255
-2.341423	9.935000	578.638
-0.341423	9.935000	826.036
1.658577	9.935000	376.694
3.658577	9.935000	556.737
5.658577	9.935000	265.725
7.658577	9.935000	465.047
9.658577	9.935000	608.785
11.6586	9.935000	588.825
13.6586	9.935000	35.5902
15.6586	9.935000	8.803123
17.6586	9.935000	20.6644
19.6586	9.935000	16.4282
21.6586	9.935000	344.917
23.6586	9.935000	10.6275
-39.3414	10.935	515.306
-37.3414	10.935	588.157
-35.3414	10.935	662.428
-33.3414	10.935	468.76
-31.3414	10.935	803.56
-29.3414	10.935	654.178
-27.3414	10.935	322.291
-25.3414	10.935	99.0862
-23.3414	10.935	58.1632
-21.3414	10.935	312.846
-19.3414	10.935	715.959
-17.3414	10.935	516.492
-15.3414	10.935	704.72
-13.3414	10.935	623.619
-11.3414	10.935	290.425
-9.341423	10.935	393.489
-7.341423	10.935	519.688
-5.341423	10.935	731.045
-3.341423	10.935	229.338
-1.341423	10.935	1149.76
0.658577	10.935	719.057
2.658577	10.935	588.374
4.658577	10.935	400.984
6.658577	10.935	399.725
8.658577	10.935	129.599
10.6586	10.935	146.732
12.6586	10.935	437.801
14.6586	10.935	3.332921
16.6586	10.935	0.000000
18.6586	10.935	6.859983
20.6586	10.935	283.125
22.6586	10.935	267.076
24.6586	10.935	142.512
-38.3414	11.935	563.852
-36.3414	11.935	604.266
-34.3414	11.935	503.991
-32.3414	11.935	520.923
-30.3414	11.935	773.476
-28.3414	11.935	660.58
-26.3414	11.935	450.422
-24.3414	11.935	31.5922
-22.3414	11.935	575.802
-20.3414	11.935	349.751
-18.3414	11.935	480.851
-16.3414	11.935	581.497
-14.3414	11.935	680.929
-12.3414	11.935	328.128
-10.3414	11.935	195.228
-8.341423	11.935	442.62
-6.341423	11.935	410.829
-4.341423	11.935	502.882
-2.341423	11.935	206.794
-0.341423	11.935	696.879
1.658577	11.935	462.974
3.658577	11.935	206.126
5.658577	11.935	425.683
7.658577	11.935	969.508
9.658577	11.935	520.628
11.6586	11.935	629.272
13.6586	11.935	247.959
15.6586	11.935	0.000000
17.6586	11.935	0.000000
19.6586	11.935	10.6733
21.6586	11.935	228.794
23.6586	11.935	384.09
-39.3414	12.935	546.849
-37.3414	12.935	564.698
-35.3414	12.935	573.601
-33.3414	12.935	634.395
-31.3414	12.935	625.232
-29.3414	12.935	749.272
-27.3414	12.935	231.585
-25.3414	12.935	26.6675
-23.3414	12.935	674.458
-21.3414	12.935	422.235
-19.3414	12.935	583.193
-17.3414	12.935	540.601
-15.3414	12.935	722.545
-13.3414	12.935	647.055
-11.3414	12.935	289.199
-9.341423	12.935	341.251
-7.341423	12.935	526.648
-5.341423	12.935	389.479
-3.341423	12.935	784.082
-1.341423	12.935	712.124
0.658577	12.935	610.962
2.658577	12.935	527.953
4.658577	12.935	279.414
6.658577	12.935	722.963
8.658577	12.935	730.956
10.6586	12.935	589.328
12.6586	12.935	712.402
14.6586	12.935	3.886598
16.6586	12.935	11.471
18.6586	12.935	6.686042
20.6586	12.935	3.376478
22.6586	12.935	133.659
24.6586	12.935	101.817
-38.3414	13.935	679.19
-36.3414	13.935	667.855
-34.3414	13.935	730.949
-32.3414	13.935	508.826
-30.3414	13.935	656.33
-28.3414	13.935	602.361
-26.3414	13.935	529.779
-24.3414	13.935	222.843
-22.3414	13.935	811.812
-20.3414	13.935	473.636
-18.3414	13.935	464.498
-16.3414	13.935	591.156
-14.3414	13.935	713.14
-12.3414	13.935	466.457
-10.3414	13.935	84.284
-8.341423	13.935	505.415
-6.341423	13.935	247.103
-4.341423	13.935	425.415
-2.341423	13.935	366.7
-0.341423	13.935	377.845
1.658577	13.935	310.18
3.658577	13.935	108.053
5.658577	13.935	35.9982
7.658577	13.935	545.251
9.658577	13.935	631.642
11.6586	13.935	569.74
13.6586	13.935	56.5349
15.6586	13.935	0.000000
17.6586	13.935	10.8216
19.6586	13.935	0.000000
21.6586	13.935	1.095379
23.6586	13.935	8.981633
-39.3414	14.935	866.019
-37.3414	14.935	807.001
-35.3414	14.935	745.798
-33.3414	14.935	617.697
-31.3414	14.935	614.286
-29.3414	14.935	267.556
-27.3414	14.935	535.366
-25.3414	14.935	502.485
-23.3414	14.935	138.079
-21.3414	14.935	645.651
-19.3414	14.935	401.31
-17.3414	14.935	496.307
-15.3414	14.935	491.508
-13.3414	14.935	467.281
-11.3414	14.935	157.803
-9.341423	14.935	45.4603
-7.341423	14.935	676.181
-5.341423	14.935	536.532
-3.341423	14.935	283.683
-1.341423	14.935	536.673
0.658577	14.935	436.931
2.658577	14.935	585.685
4.658577	14.935	7.972125
6.658577	14.935	28.764
8.658577	14.935	560.923
10.6586	14.935	689.497
12.6586	14.935	426.71
14.6586	14.935	3.074924
16.6586	14.935	0.522048
18.6586	14.935	0.000000
20.6586	14.935	9.184657
22.6586	14.935	17.2459
24.6586	14.935	0.499346
-38.3414	15.935	816.509
-36.3414	15.935	665.846
-34.3414	15.935	593.859
-32.3414	15.935	645.784
-30.3414	15.935	539.923
-28.3414	15.935	477.973
-26.3414	15.935	603.755
-24.3414	15.935	342.072
-22.3414	15.935	26.3233
-20.3414	15.935	328.134
-18.3414	15.935	323.662
-16.3414	15.935	596.337
-14.3414	15.935	735.537
-12.3414	15.935	831.242
-10.3414	15.935	27.2172
-8.341423	15.935	51.3199
-6.341423	15.935	371.322
-4.341423	15.935	321.818
-2.341423	15.935	263.081
-0.341423	15.935	668.351
1.658577	15.935	726.323
3.658577	15.935	227.969
5.658577	15.935	0.654571
7.658577	15.935	14.2795
9.658577	15.935	715.15
11.6586	15.935	116.66
13.6586	15.935	88.9704
15.6586	15.935	43.272
17.6586	15.935	0.000000
19.6586	15.935	0.000000
21.6586	15.935	0.273735
23.6586	15.935	7.013010
24.6586	15.935	51.5666