File: data/derived_data/raman/20170920_Gr-NH2_for_Radisurf/20170920 Gr-NH for Radisurf map 2/G pos.txt
#XList		#YList		#IList
-39.3414	-21.065	1583.57
-37.3414	-21.065	1582.15
-35.3414	-21.065	1583.88
-33.3414	-21.065	1580.84
-31.3414	-21.065	1570
-29.3414	-21.065	1570
-27.3414	-21.065	1570
-25.3414	-21.065	1583.76
-23.3414	-21.065	1584.45
-21.3414	-21.065	1580.97
-19.3414	-21.065	1590.39
-17.3414	-21.065	1570
-15.3414	-21.065	1570
-13.3414	-21.065	1570
-11.3414	-21.065	1570
-9.341423	-21.065	1594.82
-7.341423	-21.065	1584.42
-5.341423	-21.065	1585.18
-3.341423	-21.065	1585.61
-1.341423	-21.065	1583.23
0.658577	-21.065	1583.26
2.658577	-21.065	1584.84
4.658577	-21.065	1581.59
6.658577	-21.065	1583.58
8.658577	-21.065	1582.1
10.6586	-21.065	1584.54
12.6586	-21.065	1584.61
14.6586	-21.065	1584.34
16.6586	-21.065	1581.76
18.6586	-21.065	1584.36
20.6586	-21.065	1583.64
22.6586	-21.065	1570
24.6586	-21.065	1594.82
-38.3414	-20.065	1584.17
-36.3414	-20.065	1582.92
-34.3414	-20.065	1583.56
-32.3414	-20.065	1581.98
-30.3414	-20.065	1579.28
-28.3414	-20.065	1584.91
-26.3414	-20.065	1584.46
-24.3414	-20.065	1585.38
-22.3414	-20.065	1572.01
-20.3414	-20.065	1584.39
-18.3414	-20.065	1583.9
-16.3414	-20.065	1570
-14.3414	-20.065	1570
-12.3414	-20.065	1570.99
-10.3414	-20.065	1586.09
-8.341423	-20.065	1584.87
-6.341423	-20.065	1585.54
-4.341423	-20.065	1577.08
-2.341423	-20.065	1581.97
-0.341423	-20.065	1583.06
1.658577	-20.065	1583.49
3.658577	-20.065	1582.53
5.658577	-20.065	1580.08
7.658577	-20.065	1570
9.658577	-20.065	1583.46
11.6586	-20.065	1583.78
13.6586	-20.065	1585.97
15.6586	-20.065	1583.29
17.6586	-20.065	1584
19.6586	-20.065	1574.45
21.6586	-20.065	1581.4
23.6586	-20.065	1571.48
-39.3414	-19.065	1582.39
-37.3414	-19.065	1583.39
-35.3414	-19.065	1583.61
-33.3414	-19.065	1585.28
-31.3414	-19.065	1570
-29.3414	-19.065	1585.2
-27.3414	-19.065	1584.75
-25.3414	-19.065	1583.54
-23.3414	-19.065	1583.92
-21.3414	-19.065	1586.26
-19.3414	-19.065	1582.18
-17.3414	-19.065	1571.12
-15.3414	-19.065	1570
-13.3414	-19.065	1570
-11.3414	-19.065	1576.53
-9.341423	-19.065	1584.76
-7.341423	-19.065	1585.6
-5.341423	-19.065	1583.85
-3.341423	-19.065	1588.09
-1.341423	-19.065	1583.31
0.658577	-19.065	1582.87
2.658577	-19.065	1582.83
4.658577	-19.065	1581.79
6.658577	-19.065	1579.96
8.658577	-19.065	1570.82
10.6586	-19.065	1582.91
12.6586	-19.065	1579.95
14.6586	-19.065	1581.24
16.6586	-19.065	1583.35
18.6586	-19.065	1585.57
20.6586	-19.065	1577.62
22.6586	-19.065	1579.64
24.6586	-19.065	1577.55
-38.3414	-18.065	1582.07
-36.3414	-18.065	1583.5
-34.3414	-18.065	1586.95
-32.3414	-18.065	1579.38
-30.3414	-18.065	1570
-28.3414	-18.065	1580.55
-26.3414	-18.065	1570
-24.3414	-18.065	1584.77
-22.3414	-18.065	1585.08
-20.3414	-18.065	1584.79
-18.3414	-18.065	1581.12
-16.3414	-18.065	1570
-14.3414	-18.065	1570
-12.3414	-18.065	1570
-10.3414	-18.065	1584.72
-8.341423	-18.065	1584.49
-6.341423	-18.065	1584.01
-4.341423	-18.065	1583.61
-2.341423	-18.065	1584.27
-0.341423	-18.065	1583.57
1.658577	-18.065	1583.66
3.658577	-18.065	1581.69
5.658577	-18.065	1582.88
7.658577	-18.065	1570
9.658577	-18.065	1570
11.6586	-18.065	1570
13.6586	-18.065	1576.5
15.6586	-18.065	1582.81
17.6586	-18.065	1584.73
19.6586	-18.065	1582.53
21.6586	-18.065	1570
23.6586	-18.065	1581.55
-39.3414	-17.065	1587.05
-37.3414	-17.065	1570
-35.3414	-17.065	1583.03
-33.3414	-17.065	1584.89
-31.3414	-17.065	1585.27
-29.3414	-17.065	1570
-27.3414	-17.065	1584.68
-25.3414	-17.065	1582.69
-23.3414	-17.065	1583.97
-21.3414	-17.065	1581.83
-19.3414	-17.065	1570
-17.3414	-17.065	1570
-15.3414	-17.065	1570
-13.3414	-17.065	1570
-11.3414	-17.065	1580.58
-9.341423	-17.065	1584.74
-7.341423	-17.065	1579.71
-5.341423	-17.065	1575.78
-3.341423	-17.065	1584.88
-1.341423	-17.065	1578.72
0.658577	-17.065	1583
2.658577	-17.065	1583.27
4.658577	-17.065	1584.16
6.658577	-17.065	1581.94
8.658577	-17.065	1570
10.6586	-17.065	1570
12.6586	-17.065	1570
14.6586	-17.065	1583.42
16.6586	-17.065	1577.49
18.6586	-17.065	1582.34
20.6586	-17.065	1572.05
22.6586	-17.065	1571.18
24.6586	-17.065	1575.47
-38.3414	-16.065	1573.45
-36.3414	-16.065	1570
-34.3414	-16.065	1570
-32.3414	-16.065	1570
-30.3414	-16.065	1570
-28.3414	-16.065	1584.24
-26.3414	-16.065	1571.79
-24.3414	-16.065	1583.91
-22.3414	-16.065	1585.22
-20.3414	-16.065	1581.11
-18.3414	-16.065	1583.77
-16.3414	-16.065	1578.44
-14.3414	-16.065	1570
-12.3414	-16.065	1575.4
-10.3414	-16.065	1584.48
-8.341423	-16.065	1585.65
-6.341423	-16.065	1583.19
-4.341423	-16.065	1583.2
-2.341423	-16.065	1583.93
-0.341423	-16.065	1580.35
1.658577	-16.065	1581.78
3.658577	-16.065	1582.23
5.658577	-16.065	1584.72
7.658577	-16.065	1570.08
9.658577	-16.065	1583.39
11.6586	-16.065	1570
13.6586	-16.065	1579.99
15.6586	-16.065	1575.06
17.6586	-16.065	1581.99
19.6586	-16.065	1583.28
21.6586	-16.065	1583.84
23.6586	-16.065	1583.02
-39.3414	-15.065	1582.87
-37.3414	-15.065	1572.16
-35.3414	-15.065	1570
-33.3414	-15.065	1570
-31.3414	-15.065	1570
-29.3414	-15.065	1582.44
-27.3414	-15.065	1570
-25.3414	-15.065	1583.88
-23.3414	-15.065	1584.62
-21.3414	-15.065	1583.17
-19.3414	-15.065	1588.99
-17.3414	-15.065	1570
-15.3414	-15.065	1570
-13.3414	-15.065	1570
-11.3414	-15.065	1583.46
-9.341423	-15.065	1586.83
-7.341423	-15.065	1586.14
-5.341423	-15.065	1584.23
-3.341423	-15.065	1583.43
-1.341423	-15.065	1584.26
0.658577	-15.065	1583.3
2.658577	-15.065	1582.49
4.658577	-15.065	1583.38
6.658577	-15.065	1570
8.658577	-15.065	1571.48
10.6586	-15.065	1570
12.6586	-15.065	1572.43
14.6586	-15.065	1581.75
16.6586	-15.065	1583.21
18.6586	-15.065	1582.56
20.6586	-15.065	1583.01
22.6586	-15.065	1581.8
24.6586	-15.065	1572.46
-38.3414	-14.065	1570
-36.3414	-14.065	1570
-34.3414	-14.065	1570
-32.3414	-14.065	1570
-30.3414	-14.065	1570
-28.3414	-14.065	1582.65
-26.3414	-14.065	1578.8
-24.3414	-14.065	1585.06
-22.3414	-14.065	1584.23
-20.3414	-14.065	1580.12
-18.3414	-14.065	1572.97
-16.3414	-14.065	1570
-14.3414	-14.065	1570
-12.3414	-14.065	1572.21
-10.3414	-14.065	1585.46
-8.341423	-14.065	1584.67
-6.341423	-14.065	1586.37
-4.341423	-14.065	1583.71
-2.341423	-14.065	1584.52
-0.341423	-14.065	1584.22
1.658577	-14.065	1582.54
3.658577	-14.065	1582.66
5.658577	-14.065	1582.47
7.658577	-14.065	1570
9.658577	-14.065	1570
11.6586	-14.065	1581.12
13.6586	-14.065	1579.66
15.6586	-14.065	1583.59
17.6586	-14.065	1586.87
19.6586	-14.065	1583.23
21.6586	-14.065	1583.69
23.6586	-14.065	1582.69
-39.3414	-13.065	1570
-37.3414	-13.065	1570
-35.3414	-13.065	1570
-33.3414	-13.065	1570
-31.3414	-13.065	1570
-29.3414	-13.065	1570
-27.3414	-13.065	1577.6
-25.3414	-13.065	1583.62
-23.3414	-13.065	1584.65
-21.3414	-13.065	1582.03
-19.3414	-13.065	1583.33
-17.3414	-13.065	1581.68
-15.3414	-13.065	1582.8
-13.3414	-13.065	1582.47
-11.3414	-13.065	1586.94
-9.341423	-13.065	1585.37
-7.341423	-13.065	1585.46
-5.341423	-13.065	1584.79
-3.341423	-13.065	1584.19
-1.341423	-13.065	1582.44
0.658577	-13.065	1583.53
2.658577	-13.065	1583.34
4.658577	-13.065	1581.8
6.658577	-13.065	1582.45
8.658577	-13.065	1570.79
10.6586	-13.065	1581.14
12.6586	-13.065	1584.83
14.6586	-13.065	1582.67
16.6586	-13.065	1573.68
18.6586	-13.065	1583.84
20.6586	-13.065	1583.13
22.6586	-13.065	1583.88
24.6586	-13.065	1582.3
-38.3414	-12.065	1570
-36.3414	-12.065	1570
-34.3414	-12.065	1570
-32.3414	-12.065	1570
-30.3414	-12.065	1570
-28.3414	-12.065	1570
-26.3414	-12.065	1570
-24.3414	-12.065	1570
-22.3414	-12.065	1570
-20.3414	-12.065	1581.9
-18.3414	-12.065	1581.73
-16.3414	-12.065	1583.46
-14.3414	-12.065	1584.62
-12.3414	-12.065	1585.67
-10.3414	-12.065	1586.21
-8.341423	-12.065	1584.69
-6.341423	-12.065	1583.5
-4.341423	-12.065	1584.55
-2.341423	-12.065	1582.59
-0.341423	-12.065	1583.52
1.658577	-12.065	1584.58
3.658577	-12.065	1582.44
5.658577	-12.065	1583.22
7.658577	-12.065	1579.34
9.658577	-12.065	1582.17
11.6586	-12.065	1591.56
13.6586	-12.065	1580.52
15.6586	-12.065	1584.82
17.6586	-12.065	1583.82
19.6586	-12.065	1583.87
21.6586	-12.065	1583.21
23.6586	-12.065	1583.87
-39.3414	-11.065	1570
-37.3414	-11.065	1570
-35.3414	-11.065	1584.25
-33.3414	-11.065	1570
-31.3414	-11.065	1570
-29.3414	-11.065	1570
-27.3414	-11.065	1570
-25.3414	-11.065	1576.75
-23.3414	-11.065	1582.23
-21.3414	-11.065	1581.34
-19.3414	-11.065	1582.63
-17.3414	-11.065	1582.5
-15.3414	-11.065	1582.94
-13.3414	-11.065	1586.37
-11.3414	-11.065	1585.86
-9.341423	-11.065	1585.29
-7.341423	-11.065	1582.1
-5.341423	-11.065	1582.17
-3.341423	-11.065	1583.11
-1.341423	-11.065	1581.91
0.658577	-11.065	1581.6
2.658577	-11.065	1584.4
4.658577	-11.065	1581.84
6.658577	-11.065	1582.08
8.658577	-11.065	1585.62
10.6586	-11.065	1600
12.6586	-11.065	1584.5
14.6586	-11.065	1585.22
16.6586	-11.065	1583.96
18.6586	-11.065	1582.55
20.6586	-11.065	1581.76
22.6586	-11.065	1582.68
24.6586	-11.065	1583.38
-38.3414	-10.065	1570
-36.3414	-10.065	1570
-34.3414	-10.065	1570
-32.3414	-10.065	1570
-30.3414	-10.065	1570
-28.3414	-10.065	1570
-26.3414	-10.065	1573.52
-24.3414	-10.065	1582.95
-22.3414	-10.065	1586.1
-20.3414	-10.065	1580.92
-18.3414	-10.065	1583.99
-16.3414	-10.065	1584.09
-14.3414	-10.065	1573.43
-12.3414	-10.065	1570
-10.3414	-10.065	1570.14
-8.341423	-10.065	1581.74
-6.341423	-10.065	1581.7
-4.341423	-10.065	1583.64
-2.341423	-10.065	1583
-0.341423	-10.065	1581.54
1.658577	-10.065	1582.9
3.658577	-10.065	1581.47
5.658577	-10.065	1583.4
7.658577	-10.065	1577.45
9.658577	-10.065	1581.36
11.6586	-10.065	1586.28
13.6586	-10.065	1582.3
15.6586	-10.065	1583.17
17.6586	-10.065	1582.64
19.6586	-10.065	1584.17
21.6586	-10.065	1583.31
23.6586	-10.065	1582.53
-39.3414	-9.065000	1570
-37.3414	-9.065000	1570
-35.3414	-9.065000	1570
-33.3414	-9.065000	1570
-31.3414	-9.065000	1570
-29.3414	-9.065000	1570
-27.3414	-9.065000	1570
-25.3414	-9.065000	1578.2
-23.3414	-9.065000	1586.47
-21.3414	-9.065000	1586.05
-19.3414	-9.065000	1583.95
-17.3414	-9.065000	1585.01
-15.3414	-9.065000	1586.91
-13.3414	-9.065000	1570
-11.3414	-9.065000	1570
-9.341423	-9.065000	1570
-7.341423	-9.065000	1582.72
-5.341423	-9.065000	1581.77
-3.341423	-9.065000	1582.44
-1.341423	-9.065000	1584.48
0.658577	-9.065000	1579.44
2.658577	-9.065000	1581.38
4.658577	-9.065000	1581.88
6.658577	-9.065000	1578.04
8.658577	-9.065000	1587.17
10.6586	-9.065000	1600
12.6586	-9.065000	1582.01
14.6586	-9.065000	1581.71
16.6586	-9.065000	1583.23
18.6586	-9.065000	1583.31
20.6586	-9.065000	1583.03
22.6586	-9.065000	1582.64
24.6586	-9.065000	1579.52
-38.3414	-8.065000	1570
-36.3414	-8.065000	1570
-34.3414	-8.065000	1570
-32.3414	-8.065000	1570
-30.3414	-8.065000	1570
-28.3414	-8.065000	1570
-26.3414	-8.065000	1572.1
-24.3414	-8.065000	1582.44
-22.3414	-8.065000	1580.74
-20.3414	-8.065000	1581.25
-18.3414	-8.065000	1582.46
-16.3414	-8.065000	1572.48
-14.3414	-8.065000	1579.76
-12.3414	-8.065000	1581.92
-10.3414	-8.065000	1570
-8.341423	-8.065000	1570
-6.341423	-8.065000	1581.62
-4.341423	-8.065000	1581.54
-2.341423	-8.065000	1582.49
-0.341423	-8.065000	1582.35
1.658577	-8.065000	1581.61
3.658577	-8.065000	1584.04
5.658577	-8.065000	1576.06
7.658577	-8.065000	1570.18
9.658577	-8.065000	1600
11.6586	-8.065000	1570
13.6586	-8.065000	1581.07
15.6586	-8.065000	1581.64
17.6586	-8.065000	1582.86
19.6586	-8.065000	1583.44
21.6586	-8.065000	1583.32
23.6586	-8.065000	1582.77
-39.3414	-7.065000	1570
-37.3414	-7.065000	1570
-35.3414	-7.065000	1570
-33.3414	-7.065000	1570
-31.3414	-7.065000	1570
-29.3414	-7.065000	1570
-27.3414	-7.065000	1576.4
-25.3414	-7.065000	1570
-23.3414	-7.065000	1582.13
-21.3414	-7.065000	1581.32
-19.3414	-7.065000	1577.45
-17.3414	-7.065000	1571.11
-15.3414	-7.065000	1580.31
-13.3414	-7.065000	1570
-11.3414	-7.065000	1570
-9.341423	-7.065000	1571.35
-7.341423	-7.065000	1582.38
-5.341423	-7.065000	1582.15
-3.341423	-7.065000	1577.93
-1.341423	-7.065000	1583.96
0.658577	-7.065000	1581.02
2.658577	-7.065000	1584.25
4.658577	-7.065000	1585.06
6.658577	-7.065000	1570
8.658577	-7.065000	1574.61
10.6586	-7.065000	1582.36
12.6586	-7.065000	1583.05
14.6586	-7.065000	1589.1
16.6586	-7.065000	1583.15
18.6586	-7.065000	1582.6
20.6586	-7.065000	1584.06
22.6586	-7.065000	1583.77
24.6586	-7.065000	1582.53
-38.3414	-6.065000	1570
-36.3414	-6.065000	1570
-34.3414	-6.065000	1570
-32.3414	-6.065000	1570
-30.3414	-6.065000	1570
-28.3414	-6.065000	1570
-26.3414	-6.065000	1575.63
-24.3414	-6.065000	1573.26
-22.3414	-6.065000	1583.2
-20.3414	-6.065000	1584.7
-18.3414	-6.065000	1582.72
-16.3414	-6.065000	1570
-14.3414	-6.065000	1570
-12.3414	-6.065000	1570
-10.3414	-6.065000	1570
-8.341423	-6.065000	1570
-6.341423	-6.065000	1570
-4.341423	-6.065000	1580.71
-2.341423	-6.065000	1585.61
-0.341423	-6.065000	1590.41
1.658577	-6.065000	1589.95
3.658577	-6.065000	1584.14
5.658577	-6.065000	1584.51
7.658577	-6.065000	1581.91
9.658577	-6.065000	1580.11
11.6586	-6.065000	1581.51
13.6586	-6.065000	1585.28
15.6586	-6.065000	1584.18
17.6586	-6.065000	1582.24
19.6586	-6.065000	1584.11
21.6586	-6.065000	1583.44
23.6586	-6.065000	1583.62
-39.3414	-5.065000	1573.7
-37.3414	-5.065000	1570
-35.3414	-5.065000	1570
-33.3414	-5.065000	1570
-31.3414	-5.065000	1571.09
-29.3414	-5.065000	1572.06
-27.3414	-5.065000	1582.05
-25.3414	-5.065000	1582.82
-23.3414	-5.065000	1570.91
-21.3414	-5.065000	1578.66
-19.3414	-5.065000	1589.07
-17.3414	-5.065000	1584.02
-15.3414	-5.065000	1570
-13.3414	-5.065000	1570
-11.3414	-5.065000	1570
-9.341423	-5.065000	1570
-7.341423	-5.065000	1570
-5.341423	-5.065000	1572.42
-3.341423	-5.065000	1596.77
-1.341423	-5.065000	1578.94
0.658577	-5.065000	1584.63
2.658577	-5.065000	1570
4.658577	-5.065000	1580.75
6.658577	-5.065000	1582.59
8.658577	-5.065000	1582.02
10.6586	-5.065000	1583.27
12.6586	-5.065000	1577.78
14.6586	-5.065000	1587.99
16.6586	-5.065000	1582.74
18.6586	-5.065000	1582.54
20.6586	-5.065000	1582.84
22.6586	-5.065000	1582.87
24.6586	-5.065000	1584.02
-38.3414	-4.065000	1577.2
-36.3414	-4.065000	1586.74
-34.3414	-4.065000	1570
-32.3414	-4.065000	1572.15
-30.3414	-4.065000	1575.79
-28.3414	-4.065000	1570
-26.3414	-4.065000	1581.23
-24.3414	-4.065000	1574.83
-22.3414	-4.065000	1570.32
-20.3414	-4.065000	1583.44
-18.3414	-4.065000	1575.87
-16.3414	-4.065000	1574.96
-14.3414	-4.065000	1570
-12.3414	-4.065000	1570
-10.3414	-4.065000	1586.05
-8.341423	-4.065000	1570
-6.341423	-4.065000	1581.06
-4.341423	-4.065000	1585.13
-2.341423	-4.065000	1570
-0.341423	-4.065000	1570
1.658577	-4.065000	1586.11
3.658577	-4.065000	1588.51
5.658577	-4.065000	1582.51
7.658577	-4.065000	1574.18
9.658577	-4.065000	1574.87
11.6586	-4.065000	1582.97
13.6586	-4.065000	1572.36
15.6586	-4.065000	1570
17.6586	-4.065000	1585.52
19.6586	-4.065000	1583.83
21.6586	-4.065000	1583.99
23.6586	-4.065000	1583.88
-39.3414	-3.065000	1595.39
-37.3414	-3.065000	1583.69
-35.3414	-3.065000	1586.11
-33.3414	-3.065000	1578.41
-31.3414	-3.065000	1575.85
-29.3414	-3.065000	1580.74
-27.3414	-3.065000	1583.21
-25.3414	-3.065000	1586.92
-23.3414	-3.065000	1570
-21.3414	-3.065000	1581.7
-19.3414	-3.065000	1584.13
-17.3414	-3.065000	1579.28
-15.3414	-3.065000	1571.78
-13.3414	-3.065000	1570
-11.3414	-3.065000	1583.36
-9.341423	-3.065000	1583.39
-7.341423	-3.065000	1583.03
-5.341423	-3.065000	1580.48
-3.341423	-3.065000	1581.58
-1.341423	-3.065000	1570
0.658577	-3.065000	1575.06
2.658577	-3.065000	1578.31
4.658577	-3.065000	1581.95
6.658577	-3.065000	1583.5
8.658577	-3.065000	1574.43
10.6586	-3.065000	1582.23
12.6586	-3.065000	1572.6
14.6586	-3.065000	1572.67
16.6586	-3.065000	1584.73
18.6586	-3.065000	1584.94
20.6586	-3.065000	1583.03
22.6586	-3.065000	1586.01
24.6586	-3.065000	1585.45
-38.3414	-2.065000	1572.49
-36.3414	-2.065000	1583.55
-34.3414	-2.065000	1581.89
-32.3414	-2.065000	1586.71
-30.3414	-2.065000	1570
-28.3414	-2.065000	1570
-26.3414	-2.065000	1570
-24.3414	-2.065000	1570
-22.3414	-2.065000	1575.8
-20.3414	-2.065000	1581.06
-18.3414	-2.065000	1571.82
-16.3414	-2.065000	1583.2
-14.3414	-2.065000	1570
-12.3414	-2.065000	1585.42
-10.3414	-2.065000	1575.43
-8.341423	-2.065000	1582.84
-6.341423	-2.065000	1583.77
-4.341423	-2.065000	1582.57
-2.341423	-2.065000	1570
-0.341423	-2.065000	1570
1.658577	-2.065000	1570
3.658577	-2.065000	1574.42
5.658577	-2.065000	1583.65
7.658577	-2.065000	1581.72
9.658577	-2.065000	1582.21
11.6586	-2.065000	1584.6
13.6586	-2.065000	1570
15.6586	-2.065000	1588.55
17.6586	-2.065000	1584.92
19.6586	-2.065000	1585.93
21.6586	-2.065000	1583.27
23.6586	-2.065000	1584.32
-39.3414	-1.065000	1581.34
-37.3414	-1.065000	1581.75
-35.3414	-1.065000	1582.75
-33.3414	-1.065000	1582.35
-31.3414	-1.065000	1583.47
-29.3414	-1.065000	1583.25
-27.3414	-1.065000	1587.8
-25.3414	-1.065000	1571.21
-23.3414	-1.065000	1570
-21.3414	-1.065000	1573.51
-19.3414	-1.065000	1570
-17.3414	-1.065000	1583.15
-15.3414	-1.065000	1577.79
-13.3414	-1.065000	1570
-11.3414	-1.065000	1578.86
-9.341423	-1.065000	1582.83
-7.341423	-1.065000	1583.47
-5.341423	-1.065000	1570
-3.341423	-1.065000	1581.87
-1.341423	-1.065000	1573.06
0.658577	-1.065000	1570
2.658577	-1.065000	1576.24
4.658577	-1.065000	1582.8
6.658577	-1.065000	1580.14
8.658577	-1.065000	1581.98
10.6586	-1.065000	1584.84
12.6586	-1.065000	1579.2
14.6586	-1.065000	1570
16.6586	-1.065000	1584.74
18.6586	-1.065000	1584.98
20.6586	-1.065000	1570
22.6586	-1.065000	1584.85
24.6586	-1.065000	1584.54
-38.3414	-0.065000	1579.9
-36.3414	-0.065000	1581.01
-34.3414	-0.065000	1582.31
-32.3414	-0.065000	1582.5
-30.3414	-0.065000	1581.99
-28.3414	-0.065000	1570.38
-26.3414	-0.065000	1582.44
-24.3414	-0.065000	1570
-22.3414	-0.065000	1573.21
-20.3414	-0.065000	1575.57
-18.3414	-0.065000	1582.71
-16.3414	-0.065000	1582.86
-14.3414	-0.065000	1570
-12.3414	-0.065000	1570
-10.3414	-0.065000	1580.8
-8.341423	-0.065000	1582.05
-6.341423	-0.065000	1582.03
-4.341423	-0.065000	1580.56
-2.341423	-0.065000	1570
-0.341423	-0.065000	1570
1.658577	-0.065000	1571.65
3.658577	-0.065000	1583.4
5.658577	-0.065000	1583.02
7.658577	-0.065000	1570
9.658577	-0.065000	1577.18
11.6586	-0.065000	1572.44
13.6586	-0.065000	1581.11
15.6586	-0.065000	1570.77
17.6586	-0.065000	1583.21
19.6586	-0.065000	1570
21.6586	-0.065000	1570
23.6586	-0.065000	1583.45
-39.3414	0.935000	1579.83
-37.3414	0.935000	1580.36
-35.3414	0.935000	1582.35
-33.3414	0.935000	1582.73
-31.3414	0.935000	1583.31
-29.3414	0.935000	1583.95
-27.3414	0.935000	1581.56
-25.3414	0.935000	1570
-23.3414	0.935000	1582.68
-21.3414	0.935000	1570
-19.3414	0.935000	1580.88
-17.3414	0.935000	1583.38
-15.3414	0.935000	1573.97
-13.3414	0.935000	1570
-11.3414	0.935000	1570
-9.341423	0.935000	1581.22
-7.341423	0.935000	1583.11
-5.341423	0.935000	1570.06
-3.341423	0.935000	1570.65
-1.341423	0.935000	1570
0.658577	0.935000	1570
2.658577	0.935000	1583.24
4.658577	0.935000	1583.53
6.658577	0.935000	1579.83
8.658577	0.935000	1578.32
10.6586	0.935000	1576.26
12.6586	0.935000	1576.82
14.6586	0.935000	1578.1
16.6586	0.935000	1578.12
18.6586	0.935000	1570.87
20.6586	0.935000	1570
22.6586	0.935000	1570
24.6586	0.935000	1584.04
-38.3414	1.935000	1580.49
-36.3414	1.935000	1581.79
-34.3414	1.935000	1582.4
-32.3414	1.935000	1576.26
-30.3414	1.935000	1585.58
-28.3414	1.935000	1570
-26.3414	1.935000	1570
-24.3414	1.935000	1584.45
-22.3414	1.935000	1570
-20.3414	1.935000	1570
-18.3414	1.935000	1583.15
-16.3414	1.935000	1585.71
-14.3414	1.935000	1573.36
-12.3414	1.935000	1585.73
-10.3414	1.935000	1570
-8.341423	1.935000	1570
-6.341423	1.935000	1580.61
-4.341423	1.935000	1570
-2.341423	1.935000	1570
-0.341423	1.935000	1570
1.658577	1.935000	1585.44
3.658577	1.935000	1584.34
5.658577	1.935000	1574.98
7.658577	1.935000	1570.65
9.658577	1.935000	1570
11.6586	1.935000	1570
13.6586	1.935000	1577.35
15.6586	1.935000	1581.39
17.6586	1.935000	1580.73
19.6586	1.935000	1577.72
21.6586	1.935000	1570
23.6586	1.935000	1577.47
-39.3414	2.935000	1581.76
-37.3414	2.935000	1578.61
-35.3414	2.935000	1581.88
-33.3414	2.935000	1582.33
-31.3414	2.935000	1586.41
-29.3414	2.935000	1579.86
-27.3414	2.935000	1573.25
-25.3414	2.935000	1576.24
-23.3414	2.935000	1585.46
-21.3414	2.935000	1570
-19.3414	2.935000	1581.14
-17.3414	2.935000	1570
-15.3414	2.935000	1580.63
-13.3414	2.935000	1570.63
-11.3414	2.935000	1573.67
-9.341423	2.935000	1570
-7.341423	2.935000	1581.93
-5.341423	2.935000	1570
-3.341423	2.935000	1570
-1.341423	2.935000	1570
0.658577	2.935000	1570
2.658577	2.935000	1583.89
4.658577	2.935000	1582.46
6.658577	2.935000	1584.22
8.658577	2.935000	1570
10.6586	2.935000	1570
12.6586	2.935000	1577.48
14.6586	2.935000	1573.49
16.6586	2.935000	1585.12
18.6586	2.935000	1572.23
20.6586	2.935000	1578.34
22.6586	2.935000	1570
24.6586	2.935000	1584.46
-38.3414	3.935000	1579.41
-36.3414	3.935000	1582.87
-34.3414	3.935000	1583
-32.3414	3.935000	1583.01
-30.3414	3.935000	1581.71
-28.3414	3.935000	1579.22
-26.3414	3.935000	1580.56
-24.3414	3.935000	1573.32
-22.3414	3.935000	1584.69
-20.3414	3.935000	1572.71
-18.3414	3.935000	1570
-16.3414	3.935000	1579.39
-14.3414	3.935000	1577.28
-12.3414	3.935000	1584.76
-10.3414	3.935000	1579.15
-8.341423	3.935000	1582.18
-6.341423	3.935000	1576.47
-4.341423	3.935000	1570
-2.341423	3.935000	1570
-0.341423	3.935000	1570
1.658577	3.935000	1576.45
3.658577	3.935000	1582.29
5.658577	3.935000	1582.16
7.658577	3.935000	1570
9.658577	3.935000	1570.64
11.6586	3.935000	1584.45
13.6586	3.935000	1581.9
15.6586	3.935000	1584.75
17.6586	3.935000	1570
19.6586	3.935000	1570
21.6586	3.935000	1573.89
23.6586	3.935000	1582.28
-39.3414	4.935000	1570
-37.3414	4.935000	1572.62
-35.3414	4.935000	1570
-33.3414	4.935000	1582.39
-31.3414	4.935000	1582.33
-29.3414	4.935000	1580.03
-27.3414	4.935000	1580.75
-25.3414	4.935000	1574.42
-23.3414	4.935000	1584.29
-21.3414	4.935000	1582.89
-19.3414	4.935000	1570
-17.3414	4.935000	1570
-15.3414	4.935000	1572.14
-13.3414	4.935000	1592.23
-11.3414	4.935000	1581.85
-9.341423	4.935000	1580.61
-7.341423	4.935000	1583.38
-5.341423	4.935000	1576.41
-3.341423	4.935000	1570
-1.341423	4.935000	1570
0.658577	4.935000	1570
2.658577	4.935000	1576.52
4.658577	4.935000	1583.41
6.658577	4.935000	1583.66
8.658577	4.935000	1571.78
10.6586	4.935000	1570
12.6586	4.935000	1576.1
14.6586	4.935000	1579.9
16.6586	4.935000	1582.92
18.6586	4.935000	1570
20.6586	4.935000	1582.04
22.6586	4.935000	1573
24.6586	4.935000	1583.65
-38.3414	5.935000	1570
-36.3414	5.935000	1570
-34.3414	5.935000	1570
-32.3414	5.935000	1570
-30.3414	5.935000	1584.73
-28.3414	5.935000	1576.69
-26.3414	5.935000	1580.44
-24.3414	5.935000	1570
-22.3414	5.935000	1584.7
-20.3414	5.935000	1570
-18.3414	5.935000	1570
-16.3414	5.935000	1570
-14.3414	5.935000	1573.97
-12.3414	5.935000	1570
-10.3414	5.935000	1573.38
-8.341423	5.935000	1579.41
-6.341423	5.935000	1582.39
-4.341423	5.935000	1587.08
-2.341423	5.935000	1570
-0.341423	5.935000	1570
1.658577	5.935000	1570
3.658577	5.935000	1583.17
5.658577	5.935000	1583.22
7.658577	5.935000	1584.2
9.658577	5.935000	1577.55
11.6586	5.935000	1578.88
13.6586	5.935000	1583.14
15.6586	5.935000	1575.55
17.6586	5.935000	1570
19.6586	5.935000	1570
21.6586	5.935000	1571.52
23.6586	5.935000	1570
-39.3414	6.935000	1570
-37.3414	6.935000	1570
-35.3414	6.935000	1570
-33.3414	6.935000	1570
-31.3414	6.935000	1582.02
-29.3414	6.935000	1578.3
-27.3414	6.935000	1584.73
-25.3414	6.935000	1575.85
-23.3414	6.935000	1583.99
-21.3414	6.935000	1583.93
-19.3414	6.935000	1570
-17.3414	6.935000	1570
-15.3414	6.935000	1574.02
-13.3414	6.935000	1570
-11.3414	6.935000	1584.94
-9.341423	6.935000	1585.43
-7.341423	6.935000	1582.98
-5.341423	6.935000	1580.94
-3.341423	6.935000	1583.69
-1.341423	6.935000	1570
0.658577	6.935000	1570
2.658577	6.935000	1579.67
4.658577	6.935000	1582.6
6.658577	6.935000	1582.5
8.658577	6.935000	1583.53
10.6586	6.935000	1575.78
12.6586	6.935000	1575.8
14.6586	6.935000	1579.43
16.6586	6.935000	1575.04
18.6586	6.935000	1570
20.6586	6.935000	1574.81
22.6586	6.935000	1570.67
24.6586	6.935000	1570
-38.3414	7.935000	1570
-36.3414	7.935000	1570
-34.3414	7.935000	1570
-32.3414	7.935000	1570
-30.3414	7.935000	1581.66
-28.3414	7.935000	1582.14
-26.3414	7.935000	1584.02
-24.3414	7.935000	1583.88
-22.3414	7.935000	1585.29
-20.3414	7.935000	1583.31
-18.3414	7.935000	1579.8
-16.3414	7.935000	1576.96
-14.3414	7.935000	1570.07
-12.3414	7.935000	1570
-10.3414	7.935000	1585.95
-8.341423	7.935000	1586.29
-6.341423	7.935000	1583.73
-4.341423	7.935000	1581.9
-2.341423	7.935000	1573.3
-0.341423	7.935000	1570
1.658577	7.935000	1579.95
3.658577	7.935000	1583.45
5.658577	7.935000	1582.42
7.658577	7.935000	1584.24
9.658577	7.935000	1582.6
11.6586	7.935000	1580.49
13.6586	7.935000	1577.03
15.6586	7.935000	1579.58
17.6586	7.935000	1580.03
19.6586	7.935000	1577.86
21.6586	7.935000	1575.1
23.6586	7.935000	1580.35
-39.3414	8.935000	1570
-37.3414	8.935000	1570
-35.3414	8.935000	1570
-33.3414	8.935000	1570
-31.3414	8.935000	1570
-29.3414	8.935000	1580.08
-27.3414	8.935000	1584.52
-25.3414	8.935000	1583.57
-23.3414	8.935000	1584.17
-21.3414	8.935000	1584.91
-19.3414	8.935000	1583.72
-17.3414	8.935000	1570
-15.3414	8.935000	1570
-13.3414	8.935000	1579.61
-11.3414	8.935000	1584.92
-9.341423	8.935000	1586.5
-7.341423	8.935000	1586.13
-5.341423	8.935000	1584.38
-3.341423	8.935000	1583.73
-1.341423	8.935000	1570
0.658577	8.935000	1570
2.658577	8.935000	1579.21
4.658577	8.935000	1582.95
6.658577	8.935000	1581.02
8.658577	8.935000	1582.38
10.6586	8.935000	1584.75
12.6586	8.935000	1582.67
14.6586	8.935000	1574.14
16.6586	8.935000	1570
18.6586	8.935000	1584.41
20.6586	8.935000	1576.69
22.6586	8.935000	1580.03
24.6586	8.935000	1581.74
-38.3414	9.935000	1570
-36.3414	9.935000	1570
-34.3414	9.935000	1570
-32.3414	9.935000	1570
-30.3414	9.935000	1570
-28.3414	9.935000	1574.6
-26.3414	9.935000	1583.6
-24.3414	9.935000	1581.33
-22.3414	9.935000	1584.67
-20.3414	9.935000	1583.34
-18.3414	9.935000	1583.85
-16.3414	9.935000	1574.02
-14.3414	9.935000	1572.35
-12.3414	9.935000	1581.22
-10.3414	9.935000	1585.82
-8.341423	9.935000	1585.99
-6.341423	9.935000	1570
-4.341423	9.935000	1587.35
-2.341423	9.935000	1580.78
-0.341423	9.935000	1571.07
1.658577	9.935000	1581.2
3.658577	9.935000	1583.38
5.658577	9.935000	1581.75
7.658577	9.935000	1582.99
9.658577	9.935000	1584.9
11.6586	9.935000	1584.24
13.6586	9.935000	1583.39
15.6586	9.935000	1595.88
17.6586	9.935000	1585.23
19.6586	9.935000	1573.56
21.6586	9.935000	1579.68
23.6586	9.935000	1584.1
-39.3414	10.935	1570
-37.3414	10.935	1570
-35.3414	10.935	1570
-33.3414	10.935	1570
-31.3414	10.935	1570
-29.3414	10.935	1570
-27.3414	10.935	1580.47
-25.3414	10.935	1581.36
-23.3414	10.935	1570
-21.3414	10.935	1584.08
-19.3414	10.935	1581.36
-17.3414	10.935	1578.56
-15.3414	10.935	1573.92
-13.3414	10.935	1577.74
-11.3414	10.935	1585.2
-9.341423	10.935	1585.71
-7.341423	10.935	1589.59
-5.341423	10.935	1570
-3.341423	10.935	1579.26
-1.341423	10.935	1588.38
0.658577	10.935	1577.25
2.658577	10.935	1583.43
4.658577	10.935	1580.71
6.658577	10.935	1581.41
8.658577	10.935	1577.87
10.6586	10.935	1582.39
12.6586	10.935	1582.17
14.6586	10.935	1570
16.6586	10.935	1600
18.6586	10.935	1570
20.6586	10.935	1573.57
22.6586	10.935	1570
24.6586	10.935	1580.79
-38.3414	11.935	1570
-36.3414	11.935	1570
-34.3414	11.935	1570
-32.3414	11.935	1570
-30.3414	11.935	1570
-28.3414	11.935	1571.33
-26.3414	11.935	1583.76
-24.3414	11.935	1583.21
-22.3414	11.935	1582.54
-20.3414	11.935	1582.17
-18.3414	11.935	1582.5
-16.3414	11.935	1584.6
-14.3414	11.935	1574.69
-12.3414	11.935	1583.65
-10.3414	11.935	1587.01
-8.341423	11.935	1585.74
-6.341423	11.935	1585.81
-4.341423	11.935	1570
-2.341423	11.935	1579.19
-0.341423	11.935	1571.18
1.658577	11.935	1582.43
3.658577	11.935	1581.3
5.658577	11.935	1582.27
7.658577	11.935	1586.63
9.658577	11.935	1583.38
11.6586	11.935	1582.8
13.6586	11.935	1585.94
15.6586	11.935	1570
17.6586	11.935	1596.09
19.6586	11.935	1598.38
21.6586	11.935	1577.84
23.6586	11.935	1575.69
-39.3414	12.935	1570
-37.3414	12.935	1570
-35.3414	12.935	1570
-33.3414	12.935	1570
-31.3414	12.935	1570
-29.3414	12.935	1570
-27.3414	12.935	1585.94
-25.3414	12.935	1586.34
-23.3414	12.935	1579.15
-21.3414	12.935	1573.83
-19.3414	12.935	1572.03
-17.3414	12.935	1585.98
-15.3414	12.935	1576.48
-13.3414	12.935	1582.07
-11.3414	12.935	1583.91
-9.341423	12.935	1584.58
-7.341423	12.935	1583.66
-5.341423	12.935	1579.27
-3.341423	12.935	1579.47
-1.341423	12.935	1583.76
0.658577	12.935	1580.49
2.658577	12.935	1582.46
4.658577	12.935	1581.74
6.658577	12.935	1570
8.658577	12.935	1586.08
10.6586	12.935	1581.95
12.6586	12.935	1583.63
14.6586	12.935	1570
16.6586	12.935	1598.75
18.6586	12.935	1586.63
20.6586	12.935	1579.34
22.6586	12.935	1581.54
24.6586	12.935	1580.33
-38.3414	13.935	1570
-36.3414	13.935	1570
-34.3414	13.935	1570
-32.3414	13.935	1570
-30.3414	13.935	1570
-28.3414	13.935	1586.79
-26.3414	13.935	1588.87
-24.3414	13.935	1575.68
-22.3414	13.935	1584.25
-20.3414	13.935	1574.98
-18.3414	13.935	1570
-16.3414	13.935	1584.01
-14.3414	13.935	1570
-12.3414	13.935	1583.13
-10.3414	13.935	1576.99
-8.341423	13.935	1581.89
-6.341423	13.935	1570
-4.341423	13.935	1571.69
-2.341423	13.935	1584.85
-0.341423	13.935	1575.43
1.658577	13.935	1583
3.658577	13.935	1577.22
5.658577	13.935	1585.19
7.658577	13.935	1570
9.658577	13.935	1582.86
11.6586	13.935	1584.05
13.6586	13.935	1585.37
15.6586	13.935	1585.88
17.6586	13.935	1570
19.6586	13.935	1570
21.6586	13.935	1600
23.6586	13.935	1598.32
-39.3414	14.935	1570
-37.3414	14.935	1570
-35.3414	14.935	1570
-33.3414	14.935	1570
-31.3414	14.935	1570
-29.3414	14.935	1570
-27.3414	14.935	1586.73
-25.3414	14.935	1587.92
-23.3414	14.935	1582.27
-21.3414	14.935	1575.16
-19.3414	14.935	1571.68
-17.3414	14.935	1582.98
-15.3414	14.935	1574.1
-13.3414	14.935	1570
-11.3414	14.935	1570
-9.341423	14.935	1586.86
-7.341423	14.935	1576.67
-5.341423	14.935	1582.94
-3.341423	14.935	1577.65
-1.341423	14.935	1578.68
0.658577	14.935	1583.56
2.658577	14.935	1582.15
4.658577	14.935	1582.77
6.658577	14.935	1586.12
8.658577	14.935	1583.93
10.6586	14.935	1584.05
12.6586	14.935	1578.3
14.6586	14.935	1577.13
16.6586	14.935	1591.65
18.6586	14.935	1573.66
20.6586	14.935	1579.03
22.6586	14.935	1600
24.6586	14.935	1579.34
-38.3414	15.935	1570
-36.3414	15.935	1570
-34.3414	15.935	1570
-32.3414	15.935	1570
-30.3414	15.935	1581.78
-28.3414	15.935	1583.19
-26.3414	15.935	1587.51
-24.3414	15.935	1585.97
-22.3414	15.935	1587.22
-20.3414	15.935	1583.49
-18.3414	15.935	1570
-16.3414	15.935	1570
-14.3414	15.935	1570
-12.3414	15.935	1570
-10.3414	15.935	1586.47
-8.341423	15.935	1584.63
-6.341423	15.935	1583.36
-4.341423	15.935	1581.45
-2.341423	15.935	1581.91
-0.341423	15.935	1584.49
1.658577	15.935	1582.83
3.658577	15.935	1579.22
5.658577	15.935	1600
7.658577	15.935	1589.34
9.658577	15.935	1584.29
11.6586	15.935	1583.14
13.6586	15.935	1573.29
15.6586	15.935	1600
17.6586	15.935	1570
19.6586	15.935	1600
21.6586	15.935	1600
23.6586	15.935	1599.74
24.6586	15.935	1570.96