File: data/derived_data/raman/20170920_Gr-NH2_for_Radisurf/20170920 Gr-NH for Radisurf map 2/SiO2 FWHM.txt
#XList		#YList		#IList
-39.3414	-21.065	33.5153
-37.3414	-21.065	41.2793
-35.3414	-21.065	42.9208
-33.3414	-21.065	0.639823
-31.3414	-21.065	0.639823
-29.3414	-21.065	0.639823
-27.3414	-21.065	0.648575
-25.3414	-21.065	48.7819
-23.3414	-21.065	60.0512
-21.3414	-21.065	48.9347
-19.3414	-21.065	55.4583
-17.3414	-21.065	48.1556
-15.3414	-21.065	0.639823
-13.3414	-21.065	0.639823
-11.3414	-21.065	44.5482
-9.341423	-21.065	56.3281
-7.341423	-21.065	0.639823
-5.341423	-21.065	29.8048
-3.341423	-21.065	57.3499
-1.341423	-21.065	0.639823
0.658577	-21.065	23.5957
2.658577	-21.065	36.6866
4.658577	-21.065	399.975
6.658577	-21.065	61.0323
8.658577	-21.065	58.502
10.6586	-21.065	53.939
12.6586	-21.065	0.710964
14.6586	-21.065	7.568366
16.6586	-21.065	40.8574
18.6586	-21.065	18.8079
20.6586	-21.065	37.1492
22.6586	-21.065	62.0494
24.6586	-21.065	64.2835
-38.3414	-20.065	33.4843
-36.3414	-20.065	38.5199
-34.3414	-20.065	0.906260
-32.3414	-20.065	0.639823
-30.3414	-20.065	0.639823
-28.3414	-20.065	0.676717
-26.3414	-20.065	0.639833
-24.3414	-20.065	38.9784
-22.3414	-20.065	51.5262
-20.3414	-20.065	42.3682
-18.3414	-20.065	36.5093
-16.3414	-20.065	0.639823
-14.3414	-20.065	0.639823
-12.3414	-20.065	0.639823
-10.3414	-20.065	54.7364
-8.341423	-20.065	22.7742
-6.341423	-20.065	15.5984
-4.341423	-20.065	48.8731
-2.341423	-20.065	0.652771
-0.341423	-20.065	3.137663
1.658577	-20.065	33.9273
3.658577	-20.065	0.645568
5.658577	-20.065	62.2171
7.658577	-20.065	61.6644
9.658577	-20.065	51.4788
11.6586	-20.065	33.4142
13.6586	-20.065	27.4471
15.6586	-20.065	0.639823
17.6586	-20.065	41.5168
19.6586	-20.065	3.841104
21.6586	-20.065	40.1449
23.6586	-20.065	59.3967
-39.3414	-19.065	20.1471
-37.3414	-19.065	43.7191
-35.3414	-19.065	32.3492
-33.3414	-19.065	42.4264
-31.3414	-19.065	0.639823
-29.3414	-19.065	0.639823
-27.3414	-19.065	19.4673
-25.3414	-19.065	0.639823
-23.3414	-19.065	0.639823
-21.3414	-19.065	0.639823
-19.3414	-19.065	6.878971
-17.3414	-19.065	0.639823
-15.3414	-19.065	0.639823
-13.3414	-19.065	0.639823
-11.3414	-19.065	37.6818
-9.341423	-19.065	23.269
-7.341423	-19.065	19.8217
-5.341423	-19.065	36.1084
-3.341423	-19.065	0.639823
-1.341423	-19.065	160.946
0.658577	-19.065	36.2159
2.658577	-19.065	26.2595
4.658577	-19.065	0.684032
6.658577	-19.065	56.8928
8.658577	-19.065	47.8553
10.6586	-19.065	30.4133
12.6586	-19.065	39.6202
14.6586	-19.065	25.9963
16.6586	-19.065	28.2626
18.6586	-19.065	13.383
20.6586	-19.065	0.639823
22.6586	-19.065	56.7901
24.6586	-19.065	53.6689
-38.3414	-18.065	28.1721
-36.3414	-18.065	28.3811
-34.3414	-18.065	64.164
-32.3414	-18.065	0.639823
-30.3414	-18.065	0.639823
-28.3414	-18.065	9.126625
-26.3414	-18.065	6.658585
-24.3414	-18.065	0.639823
-22.3414	-18.065	5.103407
-20.3414	-18.065	13.8432
-18.3414	-18.065	0.822430
-16.3414	-18.065	0.639823
-14.3414	-18.065	0.639823
-12.3414	-18.065	0.639823
-10.3414	-18.065	5.965150
-8.341423	-18.065	0.749458
-6.341423	-18.065	0.639823
-4.341423	-18.065	34.374
-2.341423	-18.065	20.9277
-0.341423	-18.065	31.2159
1.658577	-18.065	33.4926
3.658577	-18.065	37.0895
5.658577	-18.065	49.1865
7.658577	-18.065	0.639823
9.658577	-18.065	6.732318
11.6586	-18.065	0.639823
13.6586	-18.065	0.653331
15.6586	-18.065	0.698266
17.6586	-18.065	0.796696
19.6586	-18.065	43.2355
21.6586	-18.065	48.466
23.6586	-18.065	27.2994
-39.3414	-17.065	6.175546
-37.3414	-17.065	0.639823
-35.3414	-17.065	60.178
-33.3414	-17.065	49.234
-31.3414	-17.065	0.639823
-29.3414	-17.065	14.2589
-27.3414	-17.065	31.4841
-25.3414	-17.065	8.497034
-23.3414	-17.065	8.900434
-21.3414	-17.065	108.935
-19.3414	-17.065	44.3121
-17.3414	-17.065	39.82
-15.3414	-17.065	0.639823
-13.3414	-17.065	0.639823
-11.3414	-17.065	0.639823
-9.341423	-17.065	24.8615
-7.341423	-17.065	49.8989
-5.341423	-17.065	0.693703
-3.341423	-17.065	1.000601
-1.341423	-17.065	9.507176
0.658577	-17.065	27.661
2.658577	-17.065	29.0734
4.658577	-17.065	0.697004
6.658577	-17.065	1.374084
8.658577	-17.065	2.314888
10.6586	-17.065	8.874135
12.6586	-17.065	0.639823
14.6586	-17.065	35.737
16.6586	-17.065	44.5905
18.6586	-17.065	38.9351
20.6586	-17.065	55.138
22.6586	-17.065	42.8289
24.6586	-17.065	0.646433
-38.3414	-16.065	0.644378
-36.3414	-16.065	54.6378
-34.3414	-16.065	43.2533
-32.3414	-16.065	0.639823
-30.3414	-16.065	8.045128
-28.3414	-16.065	20.091
-26.3414	-16.065	12.1231
-24.3414	-16.065	0.640068
-22.3414	-16.065	0.639823
-20.3414	-16.065	55.2596
-18.3414	-16.065	56.8252
-16.3414	-16.065	0.639823
-14.3414	-16.065	0.639823
-12.3414	-16.065	0.639823
-10.3414	-16.065	37.113
-8.341423	-16.065	47.7332
-6.341423	-16.065	0.642191
-4.341423	-16.065	0.639823
-2.341423	-16.065	42.5304
-0.341423	-16.065	6.087164
1.658577	-16.065	33.966
3.658577	-16.065	0.639823
5.658577	-16.065	30.2779
7.658577	-16.065	18.3623
9.658577	-16.065	6.332992
11.6586	-16.065	0.639823
13.6586	-16.065	47.4593
15.6586	-16.065	0.725984
17.6586	-16.065	45.82
19.6586	-16.065	23.8627
21.6586	-16.065	21.1767
23.6586	-16.065	0.639823
-39.3414	-15.065	37.6721
-37.3414	-15.065	45.4371
-35.3414	-15.065	0.639823
-33.3414	-15.065	0.639823
-31.3414	-15.065	2.911489
-29.3414	-15.065	15.8319
-27.3414	-15.065	11.0901
-25.3414	-15.065	6.254396
-23.3414	-15.065	14.7633
-21.3414	-15.065	50.0875
-19.3414	-15.065	57.2067
-17.3414	-15.065	0.803979
-15.3414	-15.065	0.639823
-13.3414	-15.065	0.639823
-11.3414	-15.065	41.7426
-9.341423	-15.065	0.639823
-7.341423	-15.065	0.639823
-5.341423	-15.065	13.1074
-3.341423	-15.065	36.9658
-1.341423	-15.065	44.1183
0.658577	-15.065	9.971056
2.658577	-15.065	29.8735
4.658577	-15.065	0.639823
6.658577	-15.065	0.639823
8.658577	-15.065	0.639823
10.6586	-15.065	0.639823
12.6586	-15.065	52.6323
14.6586	-15.065	48.3892
16.6586	-15.065	47.0431
18.6586	-15.065	0.639823
20.6586	-15.065	50.634
22.6586	-15.065	0.639823
24.6586	-15.065	44.0475
-38.3414	-14.065	50.1397
-36.3414	-14.065	0.639823
-34.3414	-14.065	0.639823
-32.3414	-14.065	0.639823
-30.3414	-14.065	10.3401
-28.3414	-14.065	11.2404
-26.3414	-14.065	5.450886
-24.3414	-14.065	18.7066
-22.3414	-14.065	0.639823
-20.3414	-14.065	47.5439
-18.3414	-14.065	40.6992
-16.3414	-14.065	0.639823
-14.3414	-14.065	0.639823
-12.3414	-14.065	0.872288
-10.3414	-14.065	32.3111
-8.341423	-14.065	37.2578
-6.341423	-14.065	31.4426
-4.341423	-14.065	39.2353
-2.341423	-14.065	41.6072
-0.341423	-14.065	22.4783
1.658577	-14.065	21.8225
3.658577	-14.065	0.639823
5.658577	-14.065	13.8942
7.658577	-14.065	0.639823
9.658577	-14.065	0.639823
11.6586	-14.065	53.2705
13.6586	-14.065	41.7184
15.6586	-14.065	62.4294
17.6586	-14.065	58.7051
19.6586	-14.065	48.632
21.6586	-14.065	23.5916
23.6586	-14.065	42.8663
-39.3414	-13.065	0.639823
-37.3414	-13.065	0.639823
-35.3414	-13.065	0.639823
-33.3414	-13.065	0.639823
-31.3414	-13.065	0.639823
-29.3414	-13.065	0.639823
-27.3414	-13.065	15.2953
-25.3414	-13.065	0.639823
-23.3414	-13.065	17.7198
-21.3414	-13.065	14.0107
-19.3414	-13.065	60.782
-17.3414	-13.065	36.7402
-15.3414	-13.065	26.7544
-13.3414	-13.065	58.1412
-11.3414	-13.065	34.0553
-9.341423	-13.065	0.639823
-7.341423	-13.065	36.8752
-5.341423	-13.065	33.4601
-3.341423	-13.065	35.3944
-1.341423	-13.065	33.1499
0.658577	-13.065	12.9775
2.658577	-13.065	39.9493
4.658577	-13.065	42.5272
6.658577	-13.065	0.685659
8.658577	-13.065	0.639823
10.6586	-13.065	59.4312
12.6586	-13.065	55.1543
14.6586	-13.065	32.6114
16.6586	-13.065	43.4653
18.6586	-13.065	0.965035
20.6586	-13.065	0.639823
22.6586	-13.065	14.745
24.6586	-13.065	59.7509
-38.3414	-12.065	0.639823
-36.3414	-12.065	0.639823
-34.3414	-12.065	0.639823
-32.3414	-12.065	0.639823
-30.3414	-12.065	0.639823
-28.3414	-12.065	0.639823
-26.3414	-12.065	0.639823
-24.3414	-12.065	2.643733
-22.3414	-12.065	0.711584
-20.3414	-12.065	72.1422
-18.3414	-12.065	0.639823
-16.3414	-12.065	733.31
-14.3414	-12.065	58.1829
-12.3414	-12.065	30.488
-10.3414	-12.065	0.639823
-8.341423	-12.065	0.639823
-6.341423	-12.065	20.3238
-4.341423	-12.065	39.8084
-2.341423	-12.065	17.9827
-0.341423	-12.065	25.1378
1.658577	-12.065	41.7505
3.658577	-12.065	43.2298
5.658577	-12.065	38.3297
7.658577	-12.065	0.643836
9.658577	-12.065	57.4728
11.6586	-12.065	57.02
13.6586	-12.065	0.639966
15.6586	-12.065	0.952877
17.6586	-12.065	3.443817
19.6586	-12.065	0.639823
21.6586	-12.065	1.158885
23.6586	-12.065	13.2844
-39.3414	-11.065	0.639823
-37.3414	-11.065	0.639823
-35.3414	-11.065	0.639823
-33.3414	-11.065	0.639823
-31.3414	-11.065	0.639823
-29.3414	-11.065	0.639823
-27.3414	-11.065	0.639823
-25.3414	-11.065	0.715089
-23.3414	-11.065	12.4918
-21.3414	-11.065	46.9781
-19.3414	-11.065	27.8306
-17.3414	-11.065	0.639823
-15.3414	-11.065	18.9317
-13.3414	-11.065	54.1518
-11.3414	-11.065	0.650914
-9.341423	-11.065	48.5318
-7.341423	-11.065	24.1125
-5.341423	-11.065	37.7927
-3.341423	-11.065	39.0481
-1.341423	-11.065	31.0002
0.658577	-11.065	24.0395
2.658577	-11.065	17.5219
4.658577	-11.065	45.4841
6.658577	-11.065	426.017
8.658577	-11.065	0.697153
10.6586	-11.065	62.1834
12.6586	-11.065	55.3244
14.6586	-11.065	0.639823
16.6586	-11.065	41.1918
18.6586	-11.065	0.951299
20.6586	-11.065	11.9261
22.6586	-11.065	0.834754
24.6586	-11.065	0.639823
-38.3414	-10.065	0.639823
-36.3414	-10.065	0.639823
-34.3414	-10.065	0.639823
-32.3414	-10.065	0.639823
-30.3414	-10.065	0.648681
-28.3414	-10.065	0.639823
-26.3414	-10.065	0.639823
-24.3414	-10.065	4.353713
-22.3414	-10.065	53.8772
-20.3414	-10.065	37.7125
-18.3414	-10.065	0.639823
-16.3414	-10.065	25.1069
-14.3414	-10.065	40.6447
-12.3414	-10.065	0.641072
-10.3414	-10.065	31.3409
-8.341423	-10.065	37.2597
-6.341423	-10.065	47.7467
-4.341423	-10.065	0.639823
-2.341423	-10.065	0.639823
-0.341423	-10.065	22.0914
1.658577	-10.065	21.6011
3.658577	-10.065	19.9687
5.658577	-10.065	0.639823
7.658577	-10.065	0.639823
9.658577	-10.065	59.9559
11.6586	-10.065	64.4136
13.6586	-10.065	25.5066
15.6586	-10.065	12.5735
17.6586	-10.065	21.2958
19.6586	-10.065	0.639823
21.6586	-10.065	40.3456
23.6586	-10.065	0.639823
-39.3414	-9.065000	0.639823
-37.3414	-9.065000	0.639823
-35.3414	-9.065000	0.639823
-33.3414	-9.065000	0.639823
-31.3414	-9.065000	0.639823
-29.3414	-9.065000	0.639823
-27.3414	-9.065000	0.639823
-25.3414	-9.065000	0.830300
-23.3414	-9.065000	57.1609
-21.3414	-9.065000	58.0364
-19.3414	-9.065000	39.7351
-17.3414	-9.065000	46.4399
-15.3414	-9.065000	0.639823
-13.3414	-9.065000	30.8461
-11.3414	-9.065000	0.639823
-9.341423	-9.065000	0.802718
-7.341423	-9.065000	15.1552
-5.341423	-9.065000	147.324
-3.341423	-9.065000	0.639823
-1.341423	-9.065000	0.639823
0.658577	-9.065000	0.774463
2.658577	-9.065000	48.5032
4.658577	-9.065000	0.639823
6.658577	-9.065000	85.814
8.658577	-9.065000	52.8654
10.6586	-9.065000	58.5381
12.6586	-9.065000	47.3007
14.6586	-9.065000	42.3054
16.6586	-9.065000	10.5612
18.6586	-9.065000	31.4179
20.6586	-9.065000	31.0018
22.6586	-9.065000	24.7588
24.6586	-9.065000	50.9875
-38.3414	-8.065000	0.639823
-36.3414	-8.065000	0.639823
-34.3414	-8.065000	0.639823
-32.3414	-8.065000	0.639823
-30.3414	-8.065000	0.639823
-28.3414	-8.065000	0.639823
-26.3414	-8.065000	0.639823
-24.3414	-8.065000	19.1119
-22.3414	-8.065000	57.9665
-20.3414	-8.065000	41.1677
-18.3414	-8.065000	38.0566
-16.3414	-8.065000	0.639823
-14.3414	-8.065000	15.1538
-12.3414	-8.065000	5.391383
-10.3414	-8.065000	2.404396
-8.341423	-8.065000	0.665086
-6.341423	-8.065000	0.835546
-4.341423	-8.065000	0.639823
-2.341423	-8.065000	38.3261
-0.341423	-8.065000	50.0918
1.658577	-8.065000	54.0094
3.658577	-8.065000	48.4786
5.658577	-8.065000	0.639823
7.658577	-8.065000	13.9925
9.658577	-8.065000	61.702
11.6586	-8.065000	60.05
13.6586	-8.065000	0.639823
15.6586	-8.065000	37.3453
17.6586	-8.065000	0.639823
19.6586	-8.065000	0.898757
21.6586	-8.065000	26.5642
23.6586	-8.065000	0.763505
-39.3414	-7.065000	0.639823
-37.3414	-7.065000	0.639823
-35.3414	-7.065000	0.639823
-33.3414	-7.065000	0.639823
-31.3414	-7.065000	0.639823
-29.3414	-7.065000	0.639823
-27.3414	-7.065000	39.7655
-25.3414	-7.065000	0.639823
-23.3414	-7.065000	46.4059
-21.3414	-7.065000	17.2713
-19.3414	-7.065000	0.639823
-17.3414	-7.065000	0.639823
-15.3414	-7.065000	9.902206
-13.3414	-7.065000	15.0027
-11.3414	-7.065000	0.639823
-9.341423	-7.065000	0.639823
-7.341423	-7.065000	54.2533
-5.341423	-7.065000	58.8302
-3.341423	-7.065000	34.3059
-1.341423	-7.065000	61.3906
0.658577	-7.065000	62.6712
2.658577	-7.065000	52.0756
4.658577	-7.065000	5.153769
6.658577	-7.065000	45.8265
8.658577	-7.065000	62.1461
10.6586	-7.065000	45.0301
12.6586	-7.065000	53.7319
14.6586	-7.065000	0.639823
16.6586	-7.065000	0.639823
18.6586	-7.065000	0.710384
20.6586	-7.065000	0.639823
22.6586	-7.065000	0.700343
24.6586	-7.065000	41.5838
-38.3414	-6.065000	0.639823
-36.3414	-6.065000	0.639823
-34.3414	-6.065000	0.639823
-32.3414	-6.065000	0.639823
-30.3414	-6.065000	0.639823
-28.3414	-6.065000	0.639823
-26.3414	-6.065000	0.663956
-24.3414	-6.065000	0.639823
-22.3414	-6.065000	0.639823
-20.3414	-6.065000	45.9454
-18.3414	-6.065000	56.8212
-16.3414	-6.065000	0.639823
-14.3414	-6.065000	0.639823
-12.3414	-6.065000	0.639823
-10.3414	-6.065000	0.639823
-8.341423	-6.065000	0.639823
-6.341423	-6.065000	29.5128
-4.341423	-6.065000	60.4571
-2.341423	-6.065000	52.6538
-0.341423	-6.065000	60.1021
1.658577	-6.065000	59.4058
3.658577	-6.065000	0.639823
5.658577	-6.065000	100.174
7.658577	-6.065000	36.3143
9.658577	-6.065000	54.3665
11.6586	-6.065000	13.3824
13.6586	-6.065000	0.639823
15.6586	-6.065000	8.751521
17.6586	-6.065000	0.700065
19.6586	-6.065000	0.639823
21.6586	-6.065000	8.649011
23.6586	-6.065000	144.599
-39.3414	-5.065000	54.3469
-37.3414	-5.065000	0.639823
-35.3414	-5.065000	0.639823
-33.3414	-5.065000	0.639823
-31.3414	-5.065000	0.639823
-29.3414	-5.065000	0.639823
-27.3414	-5.065000	0.673543
-25.3414	-5.065000	0.639823
-23.3414	-5.065000	0.642243
-21.3414	-5.065000	10.7442
-19.3414	-5.065000	62.3367
-17.3414	-5.065000	53.1698
-15.3414	-5.065000	0.639823
-13.3414	-5.065000	0.639823
-11.3414	-5.065000	0.639823
-9.341423	-5.065000	0.639823
-7.341423	-5.065000	0.639823
-5.341423	-5.065000	35.0903
-3.341423	-5.065000	61.1356
-1.341423	-5.065000	53.6171
0.658577	-5.065000	45.8949
2.658577	-5.065000	56.9821
4.658577	-5.065000	23.9611
6.658577	-5.065000	27.6971
8.658577	-5.065000	53.788
10.6586	-5.065000	0.639823
12.6586	-5.065000	0.639823
14.6586	-5.065000	0.639823
16.6586	-5.065000	2595.12
18.6586	-5.065000	0.669448
20.6586	-5.065000	0.639823
22.6586	-5.065000	53.6762
24.6586	-5.065000	0.639823
-38.3414	-4.065000	55.067
-36.3414	-4.065000	0.639823
-34.3414	-4.065000	0.639823
-32.3414	-4.065000	0.720501
-30.3414	-4.065000	0.798792
-28.3414	-4.065000	38.8425
-26.3414	-4.065000	0.639823
-24.3414	-4.065000	0.639823
-22.3414	-4.065000	0.805147
-20.3414	-4.065000	41.1126
-18.3414	-4.065000	49.5574
-16.3414	-4.065000	47.8035
-14.3414	-4.065000	0.639823
-12.3414	-4.065000	0.639823
-10.3414	-4.065000	0.639823
-8.341423	-4.065000	5.742011
-6.341423	-4.065000	7.161336
-4.341423	-4.065000	57.0018
-2.341423	-4.065000	56.3252
-0.341423	-4.065000	40.904
1.658577	-4.065000	49.0695
3.658577	-4.065000	56.1999
5.658577	-4.065000	41.5852
7.658577	-4.065000	36.77
9.658577	-4.065000	0.697446
11.6586	-4.065000	28.5127
13.6586	-4.065000	0.639823
15.6586	-4.065000	47.5817
17.6586	-4.065000	0.639823
19.6586	-4.065000	10.4819
21.6586	-4.065000	16.826
23.6586	-4.065000	20.9762
-39.3414	-3.065000	64.7293
-37.3414	-3.065000	26.5388
-35.3414	-3.065000	0.639823
-33.3414	-3.065000	5.022307
-31.3414	-3.065000	52.2472
-29.3414	-3.065000	53.2633
-27.3414	-3.065000	45.8939
-25.3414	-3.065000	1.326182
-23.3414	-3.065000	0.750533
-21.3414	-3.065000	0.639823
-19.3414	-3.065000	35.8369
-17.3414	-3.065000	28.963
-15.3414	-3.065000	1.912463
-13.3414	-3.065000	0.639823
-11.3414	-3.065000	15.7094
-9.341423	-3.065000	25.6182
-7.341423	-3.065000	38.8469
-5.341423	-3.065000	21.2182
-3.341423	-3.065000	55.8933
-1.341423	-3.065000	0.639823
0.658577	-3.065000	0.639823
2.658577	-3.065000	56.2681
4.658577	-3.065000	57.4881
6.658577	-3.065000	7.747249
8.658577	-3.065000	5.524914
10.6586	-3.065000	42.5512
12.6586	-3.065000	0.639823
14.6586	-3.065000	0.823060
16.6586	-3.065000	0.639823
18.6586	-3.065000	1.147981
20.6586	-3.065000	31.9332
22.6586	-3.065000	55.2687
24.6586	-3.065000	0.639823
-38.3414	-2.065000	46.2434
-36.3414	-2.065000	52.4985
-34.3414	-2.065000	47.1626
-32.3414	-2.065000	57.2744
-30.3414	-2.065000	0.661362
-28.3414	-2.065000	60.0232
-26.3414	-2.065000	0.639823
-24.3414	-2.065000	0.639823
-22.3414	-2.065000	0.639823
-20.3414	-2.065000	44.9433
-18.3414	-2.065000	55.5278
-16.3414	-2.065000	36.603
-14.3414	-2.065000	0.639823
-12.3414	-2.065000	3.508526
-10.3414	-2.065000	0.639823
-8.341423	-2.065000	21.8647
-6.341423	-2.065000	15.006
-4.341423	-2.065000	0.639823
-2.341423	-2.065000	0.639823
-0.341423	-2.065000	0.639823
1.658577	-2.065000	17.6668
3.658577	-2.065000	44.508
5.658577	-2.065000	20.3207
7.658577	-2.065000	17.3644
9.658577	-2.065000	48.1251
11.6586	-2.065000	15.3044
13.6586	-2.065000	0.639823
15.6586	-2.065000	0.639823
17.6586	-2.065000	41.7101
19.6586	-2.065000	0.761210
21.6586	-2.065000	58.2685
23.6586	-2.065000	0.670537
-39.3414	-1.065000	58.393
-37.3414	-1.065000	47.4012
-35.3414	-1.065000	38.76
-33.3414	-1.065000	0.687415
-31.3414	-1.065000	0.672823
-29.3414	-1.065000	57.1909
-27.3414	-1.065000	53.9288
-25.3414	-1.065000	0.639823
-23.3414	-1.065000	37.3973
-21.3414	-1.065000	42.1933
-19.3414	-1.065000	53.6507
-17.3414	-1.065000	424.545
-15.3414	-1.065000	0.639823
-13.3414	-1.065000	4.977332
-11.3414	-1.065000	0.639823
-9.341423	-1.065000	27.0106
-7.341423	-1.065000	28.9901
-5.341423	-1.065000	0.639823
-3.341423	-1.065000	0.838455
-1.341423	-1.065000	0.639823
0.658577	-1.065000	0.639823
2.658577	-1.065000	33.3911
4.658577	-1.065000	0.966835
6.658577	-1.065000	44.9022
8.658577	-1.065000	45.5846
10.6586	-1.065000	37.4684
12.6586	-1.065000	0.639823
14.6586	-1.065000	23.6918
16.6586	-1.065000	15.3629
18.6586	-1.065000	49.8542
20.6586	-1.065000	37.6982
22.6586	-1.065000	47.7162
24.6586	-1.065000	45.223
-38.3414	-0.065000	21.0251
-36.3414	-0.065000	54.5237
-34.3414	-0.065000	35.5381
-32.3414	-0.065000	0.639823
-30.3414	-0.065000	71.8613
-28.3414	-0.065000	59.5294
-26.3414	-0.065000	52.2038
-24.3414	-0.065000	0.639823
-22.3414	-0.065000	50.0691
-20.3414	-0.065000	50.3541
-18.3414	-0.065000	21.2955
-16.3414	-0.065000	0.640009
-14.3414	-0.065000	0.639823
-12.3414	-0.065000	0.639823
-10.3414	-0.065000	4.148513
-8.341423	-0.065000	11.6356
-6.341423	-0.065000	20.9951
-4.341423	-0.065000	0.644615
-2.341423	-0.065000	0.639823
-0.341423	-0.065000	0.639823
1.658577	-0.065000	0.662103
3.658577	-0.065000	0.639823
5.658577	-0.065000	7.582173
7.658577	-0.065000	3.082922
9.658577	-0.065000	0.639823
11.6586	-0.065000	0.639823
13.6586	-0.065000	0.639823
15.6586	-0.065000	0.639823
17.6586	-0.065000	7.763026
19.6586	-0.065000	49.6213
21.6586	-0.065000	6.564963
23.6586	-0.065000	6.733864
-39.3414	0.935000	79.5383
-37.3414	0.935000	84.2509
-35.3414	0.935000	37.4456
-33.3414	0.935000	30.6564
-31.3414	0.935000	0.639823
-29.3414	0.935000	58.1528
-27.3414	0.935000	61.9668
-25.3414	0.935000	0.639823
-23.3414	0.935000	0.639823
-21.3414	0.935000	0.639823
-19.3414	0.935000	20.8421
-17.3414	0.935000	49.7188
-15.3414	0.935000	47.9489
-13.3414	0.935000	0.639823
-11.3414	0.935000	0.639823
-9.341423	0.935000	13.3927
-7.341423	0.935000	27.8494
-5.341423	0.935000	0.639823
-3.341423	0.935000	35.934
-1.341423	0.935000	0.639823
0.658577	0.935000	0.639823
2.658577	0.935000	36.9584
4.658577	0.935000	10.7199
6.658577	0.935000	0.639823
8.658577	0.935000	0.639823
10.6586	0.935000	0.639823
12.6586	0.935000	0.639823
14.6586	0.935000	12.4456
16.6586	0.935000	20.2746
18.6586	0.935000	0.710434
20.6586	0.935000	0.639823
22.6586	0.935000	0.639823
24.6586	0.935000	0.672189
-38.3414	1.935000	0.754041
-36.3414	1.935000	26.3049
-34.3414	1.935000	0.639823
-32.3414	1.935000	0.639823
-30.3414	1.935000	4.076688
-28.3414	1.935000	62.2243
-26.3414	1.935000	0.639823
-24.3414	1.935000	34.4615
-22.3414	1.935000	0.639823
-20.3414	1.935000	0.639823
-18.3414	1.935000	56.1723
-16.3414	1.935000	57.5076
-14.3414	1.935000	0.639823
-12.3414	1.935000	0.639823
-10.3414	1.935000	0.639823
-8.341423	1.935000	7.839673
-6.341423	1.935000	6.666864
-4.341423	1.935000	0.639823
-2.341423	1.935000	0.639823
-0.341423	1.935000	0.639823
1.658577	1.935000	48.6647
3.658577	1.935000	0.639823
5.658577	1.935000	0.639823
7.658577	1.935000	1.004192
9.658577	1.935000	0.639823
11.6586	1.935000	0.639823
13.6586	1.935000	0.639823
15.6586	1.935000	0.639823
17.6586	1.935000	11.8798
19.6586	1.935000	35.3265
21.6586	1.935000	0.639823
23.6586	1.935000	0.639823
-39.3414	2.935000	47.0104
-37.3414	2.935000	0.639823
-35.3414	2.935000	50.4077
-33.3414	2.935000	68.4477
-31.3414	2.935000	0.639823
-29.3414	2.935000	0.639823
-27.3414	2.935000	0.640229
-25.3414	2.935000	0.639823
-23.3414	2.935000	33.3369
-21.3414	2.935000	0.639823
-19.3414	2.935000	54.6593
-17.3414	2.935000	57.913
-15.3414	2.935000	56.1752
-13.3414	2.935000	42.9091
-11.3414	2.935000	0.639823
-9.341423	2.935000	0.639823
-7.341423	2.935000	13.5239
-5.341423	2.935000	0.639823
-3.341423	2.935000	0.639823
-1.341423	2.935000	0.639823
0.658577	2.935000	0.639823
2.658577	2.935000	7.906540
4.658577	2.935000	22.2731
6.658577	2.935000	54.514
8.658577	2.935000	0.639823
10.6586	2.935000	0.639823
12.6586	2.935000	0.639823
14.6586	2.935000	0.639823
16.6586	2.935000	20.0984
18.6586	2.935000	43.2617
20.6586	2.935000	44.7405
22.6586	2.935000	0.639823
24.6586	2.935000	28.7131
-38.3414	3.935000	0.640836
-36.3414	3.935000	0.639823
-34.3414	3.935000	44.1479
-32.3414	3.935000	0.639823
-30.3414	3.935000	0.639823
-28.3414	3.935000	0.639823
-26.3414	3.935000	0.639823
-24.3414	3.935000	14.4541
-22.3414	3.935000	30.9561
-20.3414	3.935000	0.639823
-18.3414	3.935000	29.4458
-16.3414	3.935000	54.8776
-14.3414	3.935000	55.8289
-12.3414	3.935000	0.640334
-10.3414	3.935000	0.639823
-8.341423	3.935000	0.639823
-6.341423	3.935000	41.629
-4.341423	3.935000	50.1835
-2.341423	3.935000	0.639823
-0.341423	3.935000	0.639823
1.658577	3.935000	0.760329
3.658577	3.935000	19.4019
5.658577	3.935000	0.639823
7.658577	3.935000	0.639823
9.658577	3.935000	0.639823
11.6586	3.935000	6.858415
13.6586	3.935000	0.639823
15.6586	3.935000	2.211796
17.6586	3.935000	0.639823
19.6586	3.935000	0.639823
21.6586	3.935000	0.639823
23.6586	3.935000	12.7891
-39.3414	4.935000	0.639823
-37.3414	4.935000	0.690599
-35.3414	4.935000	0.639823
-33.3414	4.935000	36.1901
-31.3414	4.935000	40.4023
-29.3414	4.935000	16.9547
-27.3414	4.935000	30.6034
-25.3414	4.935000	0.639823
-23.3414	4.935000	10.6833
-21.3414	4.935000	21.1179
-19.3414	4.935000	0.639823
-17.3414	4.935000	0.639823
-15.3414	4.935000	21.4312
-13.3414	4.935000	57.6117
-11.3414	4.935000	0.639823
-9.341423	4.935000	0.639823
-7.341423	4.935000	18.4816
-5.341423	4.935000	54.8971
-3.341423	4.935000	0.682704
-1.341423	4.935000	0.639823
0.658577	4.935000	0.639823
2.658577	4.935000	23.4695
4.658577	4.935000	43.3012
6.658577	4.935000	0.639823
8.658577	4.935000	0.639823
10.6586	4.935000	0.639823
12.6586	4.935000	0.639823
14.6586	4.935000	0.639823
16.6586	4.935000	0.639823
18.6586	4.935000	0.639823
20.6586	4.935000	0.639823
22.6586	4.935000	0.639823
24.6586	4.935000	34.1387
-38.3414	5.935000	0.639823
-36.3414	5.935000	0.639823
-34.3414	5.935000	0.639823
-32.3414	5.935000	1.490826
-30.3414	5.935000	54.4398
-28.3414	5.935000	56.0665
-26.3414	5.935000	1.864658
-24.3414	5.935000	0.646174
-22.3414	5.935000	42.6068
-20.3414	5.935000	41.3429
-18.3414	5.935000	0.639823
-16.3414	5.935000	0.639823
-14.3414	5.935000	0.639823
-12.3414	5.935000	45.6966
-10.3414	5.935000	0.639823
-8.341423	5.935000	0.639823
-6.341423	5.935000	0.639823
-4.341423	5.935000	57.3721
-2.341423	5.935000	0.639823
-0.341423	5.935000	0.639823
1.658577	5.935000	0.639823
3.658577	5.935000	32.684
5.658577	5.935000	45.6797
7.658577	5.935000	26.4009
9.658577	5.935000	0.639823
11.6586	5.935000	0.639823
13.6586	5.935000	0.639823
15.6586	5.935000	0.639823
17.6586	5.935000	38.2062
19.6586	5.935000	0.639823
21.6586	5.935000	0.639823
23.6586	5.935000	12.9108
-39.3414	6.935000	0.639823
-37.3414	6.935000	0.639823
-35.3414	6.935000	0.639823
-33.3414	6.935000	0.639823
-31.3414	6.935000	33.8645
-29.3414	6.935000	0.875071
-27.3414	6.935000	45.9958
-25.3414	6.935000	5.402951
-23.3414	6.935000	1.772009
-21.3414	6.935000	37.2331
-19.3414	6.935000	0.639823
-17.3414	6.935000	0.639823
-15.3414	6.935000	0.639823
-13.3414	6.935000	0.639823
-11.3414	6.935000	48.6432
-9.341423	6.935000	0.754621
-7.341423	6.935000	0.736927
-5.341423	6.935000	45.0731
-3.341423	6.935000	0.639823
-1.341423	6.935000	0.639823
0.658577	6.935000	0.639823
2.658577	6.935000	0.753088
4.658577	6.935000	48.9767
6.658577	6.935000	0.639823
8.658577	6.935000	13.3242
10.6586	6.935000	0.639823
12.6586	6.935000	0.639823
14.6586	6.935000	51.648
16.6586	6.935000	42.3768
18.6586	6.935000	0.639823
20.6586	6.935000	0.639823
22.6586	6.935000	34.9932
24.6586	6.935000	0.639823
-38.3414	7.935000	0.639823
-36.3414	7.935000	0.639823
-34.3414	7.935000	0.639823
-32.3414	7.935000	0.639823
-30.3414	7.935000	0.639823
-28.3414	7.935000	35.5376
-26.3414	7.935000	24.7946
-24.3414	7.935000	0.639823
-22.3414	7.935000	0.639823
-20.3414	7.935000	18.9036
-18.3414	7.935000	0.641191
-16.3414	7.935000	0.639823
-14.3414	7.935000	1.360994
-12.3414	7.935000	0.639823
-10.3414	7.935000	43.4293
-8.341423	7.935000	0.639823
-6.341423	7.935000	0.639823
-4.341423	7.935000	47.5195
-2.341423	7.935000	0.639823
-0.341423	7.935000	0.639823
1.658577	7.935000	0.703997
3.658577	7.935000	31.3806
5.658577	7.935000	32.9775
7.658577	7.935000	36.7694
9.658577	7.935000	7.026063
11.6586	7.935000	0.639823
13.6586	7.935000	13.9703
15.6586	7.935000	43.6264
17.6586	7.935000	0.803883
19.6586	7.935000	56.6073
21.6586	7.935000	0.639823
23.6586	7.935000	0.639823
-39.3414	8.935000	0.639823
-37.3414	8.935000	0.639823
-35.3414	8.935000	0.639823
-33.3414	8.935000	0.639823
-31.3414	8.935000	0.639823
-29.3414	8.935000	0.639823
-27.3414	8.935000	36.3967
-25.3414	8.935000	0.693070
-23.3414	8.935000	11.0881
-21.3414	8.935000	35.0255
-19.3414	8.935000	28.1084
-17.3414	8.935000	0.639823
-15.3414	8.935000	0.639823
-13.3414	8.935000	0.639823
-11.3414	8.935000	0.639823
-9.341423	8.935000	1.575406
-7.341423	8.935000	6.863784
-5.341423	8.935000	1.074887
-3.341423	8.935000	0.639823
-1.341423	8.935000	0.639823
0.658577	8.935000	0.639823
2.658577	8.935000	0.640061
4.658577	8.935000	0.639823
6.658577	8.935000	1.365771
8.658577	8.935000	28.3553
10.6586	8.935000	0.670987
12.6586	8.935000	0.654649
14.6586	8.935000	34.982
16.6586	8.935000	57.1
18.6586	8.935000	58.4562
20.6586	8.935000	61.5876
22.6586	8.935000	57.4247
24.6586	8.935000	41.6148
-38.3414	9.935000	0.639823
-36.3414	9.935000	0.639823
-34.3414	9.935000	0.639823
-32.3414	9.935000	0.639823
-30.3414	9.935000	0.639823
-28.3414	9.935000	0.684552
-26.3414	9.935000	9.755856
-24.3414	9.935000	50.9429
-22.3414	9.935000	31.1845
-20.3414	9.935000	0.743105
-18.3414	9.935000	0.737177
-16.3414	9.935000	0.641048
-14.3414	9.935000	0.639823
-12.3414	9.935000	5.968776
-10.3414	9.935000	45.5127
-8.341423	9.935000	0.639823
-6.341423	9.935000	0.639823
-4.341423	9.935000	0.699057
-2.341423	9.935000	2.156059
-0.341423	9.935000	0.639823
1.658577	9.935000	43.5464
3.658577	9.935000	0.639823
5.658577	9.935000	0.639823
7.658577	9.935000	12.1185
9.658577	9.935000	8.167658
11.6586	9.935000	0.912842
13.6586	9.935000	59.0329
15.6586	9.935000	61.6337
17.6586	9.935000	57.4106
19.6586	9.935000	63.358
21.6586	9.935000	42.2997
23.6586	9.935000	58.8024
-39.3414	10.935	0.639823
-37.3414	10.935	0.639823
-35.3414	10.935	0.639823
-33.3414	10.935	0.639823
-31.3414	10.935	0.639823
-29.3414	10.935	0.639823
-27.3414	10.935	39.7501
-25.3414	10.935	54.0667
-23.3414	10.935	50.4513
-21.3414	10.935	42.1522
-19.3414	10.935	0.639823
-17.3414	10.935	0.843132
-15.3414	10.935	0.639823
-13.3414	10.935	0.639823
-11.3414	10.935	32.1397
-9.341423	10.935	22.3308
-7.341423	10.935	0.682405
-5.341423	10.935	0.639823
-3.341423	10.935	46.29
-1.341423	10.935	0.639823
0.658577	10.935	0.639823
2.658577	10.935	17.0505
4.658577	10.935	9.771516
6.658577	10.935	0.639823
8.658577	10.935	48.7371
10.6586	10.935	45.5049
12.6586	10.935	0.868452
14.6586	10.935	61.2263
16.6586	10.935	60.2928
18.6586	10.935	55.6321
20.6586	10.935	41.8846
22.6586	10.935	39.8149
24.6586	10.935	46.2867
-38.3414	11.935	0.639823
-36.3414	11.935	0.639823
-34.3414	11.935	0.639823
-32.3414	11.935	0.639823
-30.3414	11.935	0.639823
-28.3414	11.935	0.639823
-26.3414	11.935	35.2138
-24.3414	11.935	58.8368
-22.3414	11.935	0.675723
-20.3414	11.935	45.8476
-18.3414	11.935	31.3671
-16.3414	11.935	22.3812
-14.3414	11.935	0.639823
-12.3414	11.935	37.557
-10.3414	11.935	27.3338
-8.341423	11.935	22.0674
-6.341423	11.935	34.7994
-4.341423	11.935	0.639823
-2.341423	11.935	43.205
-0.341423	11.935	0.639823
1.658577	11.935	5.957987
3.658577	11.935	0.639823
5.658577	11.935	0.639823
7.658577	11.935	0.639823
9.658577	11.935	45.5184
11.6586	11.935	8.466153
13.6586	11.935	44.0198
15.6586	11.935	61.4882
17.6586	11.935	67.2562
19.6586	11.935	60.0812
21.6586	11.935	42.5571
23.6586	11.935	31.1752
-39.3414	12.935	0.639823
-37.3414	12.935	0.639823
-35.3414	12.935	0.639823
-33.3414	12.935	0.639823
-31.3414	12.935	0.639823
-29.3414	12.935	0.639823
-27.3414	12.935	46.1287
-25.3414	12.935	61.1052
-23.3414	12.935	0.639823
-21.3414	12.935	0.670049
-19.3414	12.935	0.639823
-17.3414	12.935	47.322
-15.3414	12.935	0.639823
-13.3414	12.935	0.639823
-11.3414	12.935	35.3117
-9.341423	12.935	0.639823
-7.341423	12.935	0.895258
-5.341423	12.935	39.9461
-3.341423	12.935	1.025332
-1.341423	12.935	205.971
0.658577	12.935	2.638464
2.658577	12.935	0.639823
4.658577	12.935	49.6821
6.658577	12.935	0.639823
8.658577	12.935	11.9509
10.6586	12.935	5.670358
12.6586	12.935	2.499565
14.6586	12.935	54.3238
16.6586	12.935	65.7796
18.6586	12.935	59.0556
20.6586	12.935	56.8837
22.6586	12.935	54.6744
24.6586	12.935	51.1031
-38.3414	13.935	0.639823
-36.3414	13.935	0.639823
-34.3414	13.935	0.639823
-32.3414	13.935	0.639823
-30.3414	13.935	0.639823
-28.3414	13.935	28.0575
-26.3414	13.935	0.639823
-24.3414	13.935	39.4454
-22.3414	13.935	0.639823
-20.3414	13.935	0.639823
-18.3414	13.935	0.639823
-16.3414	13.935	25.9861
-14.3414	13.935	0.639823
-12.3414	13.935	0.670641
-10.3414	13.935	56.3481
-8.341423	13.935	0.639823
-6.341423	13.935	33.5156
-4.341423	13.935	0.901013
-2.341423	13.935	47.6146
-0.341423	13.935	0.802924
1.658577	13.935	32.8794
3.658577	13.935	46.4523
5.658577	13.935	57.4858
7.658577	13.935	0.639823
9.658577	13.935	2.982630
11.6586	13.935	19.4539
13.6586	13.935	53.2192
15.6586	13.935	58.324
17.6586	13.935	56.7417
19.6586	13.935	56.9383
21.6586	13.935	55.5011
23.6586	13.935	59.5741
-39.3414	14.935	0.639823
-37.3414	14.935	0.639823
-35.3414	14.935	0.639823
-33.3414	14.935	0.639823
-31.3414	14.935	0.639823
-29.3414	14.935	0.639823
-27.3414	14.935	0.640770
-25.3414	14.935	43.2411
-23.3414	14.935	48.7599
-21.3414	14.935	0.639823
-19.3414	14.935	11.0039
-17.3414	14.935	34.4946
-15.3414	14.935	0.639823
-13.3414	14.935	0.652340
-11.3414	14.935	46.7371
-9.341423	14.935	55.2984
-7.341423	14.935	0.639823
-5.341423	14.935	0.639823
-3.341423	14.935	48.3922
-1.341423	14.935	0.639823
0.658577	14.935	0.639823
2.658577	14.935	3.706395
4.658577	14.935	59.5325
6.658577	14.935	58.3366
8.658577	14.935	9.439213
10.6586	14.935	6.839732
12.6586	14.935	0.647485
14.6586	14.935	60.2933
16.6586	14.935	58.762
18.6586	14.935	57.5689
20.6586	14.935	60.45
22.6586	14.935	62.4448
24.6586	14.935	55.493
-38.3414	15.935	0.639823
-36.3414	15.935	0.639823
-34.3414	15.935	0.639823
-32.3414	15.935	0.639823
-30.3414	15.935	8.049065
-28.3414	15.935	1.449766
-26.3414	15.935	23.2862
-24.3414	15.935	41.9419
-22.3414	15.935	55.4762
-20.3414	15.935	13.5788
-18.3414	15.935	0.639823
-16.3414	15.935	0.639823
-14.3414	15.935	0.639823
-12.3414	15.935	0.639823
-10.3414	15.935	56.3515
-8.341423	15.935	53.765
-6.341423	15.935	0.649607
-4.341423	15.935	0.639823
-2.341423	15.935	39.5424
-0.341423	15.935	17.72
1.658577	15.935	0.639823
3.658577	15.935	47.5969
5.658577	15.935	60.9246
7.658577	15.935	65.5927
9.658577	15.935	37.1475
11.6586	15.935	53.8535
13.6586	15.935	52.7815
15.6586	15.935	63.1538
17.6586	15.935	59.5806
19.6586	15.935	67.4897
21.6586	15.935	61.2527
23.6586	15.935	57.3056
24.6586	15.935	57.337