File: data/derived_data/raman/20170920_Gr-NH2_for_Radisurf/20170920 Gr-NH for Radisurf map 2/SiO2 pos.txt
#XList		#YList		#IList
-39.3414	-21.065	966.258
-37.3414	-21.065	963.887
-35.3414	-21.065	966.961
-33.3414	-21.065	900
-31.3414	-21.065	960.469
-29.3414	-21.065	1100
-27.3414	-21.065	961.672
-25.3414	-21.065	965.361
-23.3414	-21.065	967.789
-21.3414	-21.065	963.366
-19.3414	-21.065	966.937
-17.3414	-21.065	962.441
-15.3414	-21.065	954.341
-13.3414	-21.065	1100
-11.3414	-21.065	964.445
-9.341423	-21.065	965.67
-7.341423	-21.065	940.266
-5.341423	-21.065	968.157
-3.341423	-21.065	966.673
-1.341423	-21.065	924.067
0.658577	-21.065	968.998
2.658577	-21.065	963.182
4.658577	-21.065	942.174
6.658577	-21.065	967.055
8.658577	-21.065	966.643
10.6586	-21.065	970.776
12.6586	-21.065	963.501
14.6586	-21.065	965.178
16.6586	-21.065	963.454
18.6586	-21.065	963.164
20.6586	-21.065	961.424
22.6586	-21.065	967.866
24.6586	-21.065	966.156
-38.3414	-20.065	961.529
-36.3414	-20.065	965.295
-34.3414	-20.065	948.715
-32.3414	-20.065	963.431
-30.3414	-20.065	957.424
-28.3414	-20.065	967.37
-26.3414	-20.065	960.725
-24.3414	-20.065	964.841
-22.3414	-20.065	968.728
-20.3414	-20.065	960.911
-18.3414	-20.065	963.217
-16.3414	-20.065	962.515
-14.3414	-20.065	966.457
-12.3414	-20.065	964.035
-10.3414	-20.065	968.626
-8.341423	-20.065	965.869
-6.341423	-20.065	966.491
-4.341423	-20.065	966.073
-2.341423	-20.065	967.664
-0.341423	-20.065	971.491
1.658577	-20.065	965.911
3.658577	-20.065	960.811
5.658577	-20.065	971.046
7.658577	-20.065	967.098
9.658577	-20.065	968.266
11.6586	-20.065	966.769
13.6586	-20.065	975.314
15.6586	-20.065	1009.38
17.6586	-20.065	968.145
19.6586	-20.065	962.381
21.6586	-20.065	966.114
23.6586	-20.065	969.003
-39.3414	-19.065	962.037
-37.3414	-19.065	966.325
-35.3414	-19.065	967.302
-33.3414	-19.065	963.954
-31.3414	-19.065	956.34
-29.3414	-19.065	900
-27.3414	-19.065	962.733
-25.3414	-19.065	949.804
-23.3414	-19.065	900
-21.3414	-19.065	974.639
-19.3414	-19.065	963.249
-17.3414	-19.065	961.242
-15.3414	-19.065	964.879
-13.3414	-19.065	965.808
-11.3414	-19.065	966.818
-9.341423	-19.065	964.599
-7.341423	-19.065	968.583
-5.341423	-19.065	964.297
-3.341423	-19.065	964.931
-1.341423	-19.065	900
0.658577	-19.065	964.87
2.658577	-19.065	966.948
4.658577	-19.065	960.966
6.658577	-19.065	966.242
8.658577	-19.065	963.599
10.6586	-19.065	965.46
12.6586	-19.065	965.214
14.6586	-19.065	968.035
16.6586	-19.065	958.547
18.6586	-19.065	965.368
20.6586	-19.065	965.116
22.6586	-19.065	966.348
24.6586	-19.065	964.904
-38.3414	-18.065	963.304
-36.3414	-18.065	965.808
-34.3414	-18.065	967.657
-32.3414	-18.065	900
-30.3414	-18.065	962.998
-28.3414	-18.065	962.296
-26.3414	-18.065	964.661
-24.3414	-18.065	1100
-22.3414	-18.065	967.092
-20.3414	-18.065	976.008
-18.3414	-18.065	963.467
-16.3414	-18.065	965.17
-14.3414	-18.065	962.743
-12.3414	-18.065	963.104
-10.3414	-18.065	962.319
-8.341423	-18.065	973.327
-6.341423	-18.065	1063.57
-4.341423	-18.065	966.694
-2.341423	-18.065	968.129
-0.341423	-18.065	966.342
1.658577	-18.065	966.532
3.658577	-18.065	964.808
5.658577	-18.065	965.117
7.658577	-18.065	966.278
9.658577	-18.065	965.674
11.6586	-18.065	962.333
13.6586	-18.065	961.461
15.6586	-18.065	970.725
17.6586	-18.065	967.981
19.6586	-18.065	966.774
21.6586	-18.065	965.99
23.6586	-18.065	966.853
-39.3414	-17.065	960.186
-37.3414	-17.065	963.988
-35.3414	-17.065	966.832
-33.3414	-17.065	966.097
-31.3414	-17.065	1064.73
-29.3414	-17.065	964.071
-27.3414	-17.065	960.641
-25.3414	-17.065	962.746
-23.3414	-17.065	967.021
-21.3414	-17.065	1012.33
-19.3414	-17.065	964.939
-17.3414	-17.065	965.983
-15.3414	-17.065	962.989
-13.3414	-17.065	960.5
-11.3414	-17.065	962.515
-9.341423	-17.065	948.176
-7.341423	-17.065	966.628
-5.341423	-17.065	959.295
-3.341423	-17.065	954.844
-1.341423	-17.065	965.911
0.658577	-17.065	966.061
2.658577	-17.065	962.959
4.658577	-17.065	952.69
6.658577	-17.065	959.496
8.658577	-17.065	964.063
10.6586	-17.065	963.352
12.6586	-17.065	964.607
14.6586	-17.065	959.847
16.6586	-17.065	961.705
18.6586	-17.065	963.255
20.6586	-17.065	966.255
22.6586	-17.065	965.925
24.6586	-17.065	969.55
-38.3414	-16.065	953.311
-36.3414	-16.065	966.54
-34.3414	-16.065	961.351
-32.3414	-16.065	964.184
-30.3414	-16.065	966.09
-28.3414	-16.065	963.918
-26.3414	-16.065	960.453
-24.3414	-16.065	968.025
-22.3414	-16.065	908.871
-20.3414	-16.065	967.182
-18.3414	-16.065	968.747
-16.3414	-16.065	962.099
-14.3414	-16.065	960.305
-12.3414	-16.065	965.177
-10.3414	-16.065	968.211
-8.341423	-16.065	964.301
-6.341423	-16.065	960.987
-4.341423	-16.065	1024.45
-2.341423	-16.065	964.586
-0.341423	-16.065	965.362
1.658577	-16.065	965.42
3.658577	-16.065	969.366
5.658577	-16.065	962.754
7.658577	-16.065	965.323
9.658577	-16.065	963.342
11.6586	-16.065	958.998
13.6586	-16.065	967.443
15.6586	-16.065	949.178
17.6586	-16.065	965.607
19.6586	-16.065	969.901
21.6586	-16.065	974.679
23.6586	-16.065	902.163
-39.3414	-15.065	962.974
-37.3414	-15.065	967.253
-35.3414	-15.065	959.046
-33.3414	-15.065	963.194
-31.3414	-15.065	967.813
-29.3414	-15.065	963.45
-27.3414	-15.065	963.61
-25.3414	-15.065	969.346
-23.3414	-15.065	965.396
-21.3414	-15.065	967.844
-19.3414	-15.065	967.647
-17.3414	-15.065	977.165
-15.3414	-15.065	962.514
-13.3414	-15.065	959.696
-11.3414	-15.065	967.115
-9.341423	-15.065	927.652
-7.341423	-15.065	949.301
-5.341423	-15.065	978.449
-3.341423	-15.065	961.6
-1.341423	-15.065	964.789
0.658577	-15.065	964.552
2.658577	-15.065	963.642
4.658577	-15.065	978.253
6.658577	-15.065	961.299
8.658577	-15.065	966.253
10.6586	-15.065	965.888
12.6586	-15.065	966.132
14.6586	-15.065	965.482
16.6586	-15.065	966.51
18.6586	-15.065	941.389
20.6586	-15.065	966.899
22.6586	-15.065	960.064
24.6586	-15.065	966.757
-38.3414	-14.065	963.39
-36.3414	-14.065	960.697
-34.3414	-14.065	962.677
-32.3414	-14.065	958.064
-30.3414	-14.065	965.11
-28.3414	-14.065	962.484
-26.3414	-14.065	963.798
-24.3414	-14.065	967.231
-22.3414	-14.065	902.819
-20.3414	-14.065	964.691
-18.3414	-14.065	965.878
-16.3414	-14.065	998.596
-14.3414	-14.065	963.347
-12.3414	-14.065	960.489
-10.3414	-14.065	963.23
-8.341423	-14.065	966.725
-6.341423	-14.065	964.341
-4.341423	-14.065	965.799
-2.341423	-14.065	966.335
-0.341423	-14.065	966.15
1.658577	-14.065	963.567
3.658577	-14.065	936.568
5.658577	-14.065	959.936
7.658577	-14.065	963.617
9.658577	-14.065	964.175
11.6586	-14.065	965.893
13.6586	-14.065	958.921
15.6586	-14.065	967.26
17.6586	-14.065	967.784
19.6586	-14.065	965.161
21.6586	-14.065	968.919
23.6586	-14.065	964.233
-39.3414	-13.065	957.425
-37.3414	-13.065	959.504
-35.3414	-13.065	961.341
-33.3414	-13.065	963.164
-31.3414	-13.065	964.159
-29.3414	-13.065	960.513
-27.3414	-13.065	965.406
-25.3414	-13.065	952.585
-23.3414	-13.065	960.318
-21.3414	-13.065	940.364
-19.3414	-13.065	968.803
-17.3414	-13.065	961.814
-15.3414	-13.065	977.506
-13.3414	-13.065	968.883
-11.3414	-13.065	967.985
-9.341423	-13.065	903.606
-7.341423	-13.065	964.854
-5.341423	-13.065	966.673
-3.341423	-13.065	962.007
-1.341423	-13.065	965.05
0.658577	-13.065	964.005
2.658577	-13.065	962.064
4.658577	-13.065	963.098
6.658577	-13.065	960.726
8.658577	-13.065	966.383
10.6586	-13.065	968.499
12.6586	-13.065	966.032
14.6586	-13.065	966.521
16.6586	-13.065	964.951
18.6586	-13.065	967.817
20.6586	-13.065	965.356
22.6586	-13.065	962.37
24.6586	-13.065	941.866
-38.3414	-12.065	964.284
-36.3414	-12.065	967.835
-34.3414	-12.065	960.768
-32.3414	-12.065	966.52
-30.3414	-12.065	962.31
-28.3414	-12.065	967.437
-26.3414	-12.065	1100
-24.3414	-12.065	971.369
-22.3414	-12.065	963.962
-20.3414	-12.065	929.587
-18.3414	-12.065	939.575
-16.3414	-12.065	900
-14.3414	-12.065	968.509
-12.3414	-12.065	960.778
-10.3414	-12.065	966.46
-8.341423	-12.065	901.376
-6.341423	-12.065	963.639
-4.341423	-12.065	964.435
-2.341423	-12.065	963.98
-0.341423	-12.065	965.386
1.658577	-12.065	962.437
3.658577	-12.065	966.181
5.658577	-12.065	967.635
7.658577	-12.065	949.026
9.658577	-12.065	965.949
11.6586	-12.065	968.026
13.6586	-12.065	900
15.6586	-12.065	959.289
17.6586	-12.065	968.447
19.6586	-12.065	1047.71
21.6586	-12.065	972.772
23.6586	-12.065	973.689
-39.3414	-11.065	962.4
-37.3414	-11.065	959.6
-35.3414	-11.065	960.558
-33.3414	-11.065	962.045
-31.3414	-11.065	958.459
-29.3414	-11.065	958.825
-27.3414	-11.065	958.572
-25.3414	-11.065	960.791
-23.3414	-11.065	969.049
-21.3414	-11.065	966.774
-19.3414	-11.065	964.683
-17.3414	-11.065	921.65
-15.3414	-11.065	963.77
-13.3414	-11.065	966.571
-11.3414	-11.065	958.442
-9.341423	-11.065	958.258
-7.341423	-11.065	964.618
-5.341423	-11.065	964.27
-3.341423	-11.065	964.153
-1.341423	-11.065	966.089
0.658577	-11.065	963.708
2.658577	-11.065	964.606
4.658577	-11.065	967.178
6.658577	-11.065	1008.73
8.658577	-11.065	983.059
10.6586	-11.065	965.245
12.6586	-11.065	965.451
14.6586	-11.065	914.581
16.6586	-11.065	963.332
18.6586	-11.065	927.389
20.6586	-11.065	947.248
22.6586	-11.065	975.872
24.6586	-11.065	924.886
-38.3414	-10.065	956.987
-36.3414	-10.065	966.618
-34.3414	-10.065	963.073
-32.3414	-10.065	961.443
-30.3414	-10.065	960.232
-28.3414	-10.065	964.128
-26.3414	-10.065	963.644
-24.3414	-10.065	964.009
-22.3414	-10.065	967.75
-20.3414	-10.065	966.714
-18.3414	-10.065	971.503
-16.3414	-10.065	963.806
-14.3414	-10.065	969.756
-12.3414	-10.065	963.406
-10.3414	-10.065	965.405
-8.341423	-10.065	956.315
-6.341423	-10.065	963.851
-4.341423	-10.065	1031.98
-2.341423	-10.065	1041.25
-0.341423	-10.065	961.671
1.658577	-10.065	962.853
3.658577	-10.065	979.685
5.658577	-10.065	901.336
7.658577	-10.065	1056.02
9.658577	-10.065	967.393
11.6586	-10.065	965.411
13.6586	-10.065	968.048
15.6586	-10.065	971.934
17.6586	-10.065	958.199
19.6586	-10.065	953.648
21.6586	-10.065	970.205
23.6586	-10.065	1078.4
-39.3414	-9.065000	959.072
-37.3414	-9.065000	959.708
-35.3414	-9.065000	956.673
-33.3414	-9.065000	960.68
-31.3414	-9.065000	959.054
-29.3414	-9.065000	961.499
-27.3414	-9.065000	963.297
-25.3414	-9.065000	950.51
-23.3414	-9.065000	965.561
-21.3414	-9.065000	967.741
-19.3414	-9.065000	963.08
-17.3414	-9.065000	963.693
-15.3414	-9.065000	960.973
-13.3414	-9.065000	960.147
-11.3414	-9.065000	959.218
-9.341423	-9.065000	964.341
-7.341423	-9.065000	978.514
-5.341423	-9.065000	946.348
-3.341423	-9.065000	999.519
-1.341423	-9.065000	1046.23
0.658577	-9.065000	961.844
2.658577	-9.065000	966.075
4.658577	-9.065000	931.821
6.658577	-9.065000	936.789
8.658577	-9.065000	969.787
10.6586	-9.065000	968.804
12.6586	-9.065000	960.571
14.6586	-9.065000	969.326
16.6586	-9.065000	976.71
18.6586	-9.065000	968.104
20.6586	-9.065000	968.346
22.6586	-9.065000	976.648
24.6586	-9.065000	968.305
-38.3414	-8.065000	960.682
-36.3414	-8.065000	965.551
-34.3414	-8.065000	958.484
-32.3414	-8.065000	959.609
-30.3414	-8.065000	961.234
-28.3414	-8.065000	955.383
-26.3414	-8.065000	965.362
-24.3414	-8.065000	950.733
-22.3414	-8.065000	968.083
-20.3414	-8.065000	961.037
-18.3414	-8.065000	962.542
-16.3414	-8.065000	962.705
-14.3414	-8.065000	964.97
-12.3414	-8.065000	962.061
-10.3414	-8.065000	964.163
-8.341423	-8.065000	964.822
-6.341423	-8.065000	931.261
-4.341423	-8.065000	1002.51
-2.341423	-8.065000	971.272
-0.341423	-8.065000	970.263
1.658577	-8.065000	966.603
3.658577	-8.065000	967.673
5.658577	-8.065000	927.292
7.658577	-8.065000	965.43
9.658577	-8.065000	967.534
11.6586	-8.065000	967.603
13.6586	-8.065000	930.234
15.6586	-8.065000	965.547
17.6586	-8.065000	986.215
19.6586	-8.065000	959.374
21.6586	-8.065000	959.567
23.6586	-8.065000	965.37
-39.3414	-7.065000	957.755
-37.3414	-7.065000	961.423
-35.3414	-7.065000	962.235
-33.3414	-7.065000	962.575
-31.3414	-7.065000	962.087
-29.3414	-7.065000	961.176
-27.3414	-7.065000	962.504
-25.3414	-7.065000	950.593
-23.3414	-7.065000	964.439
-21.3414	-7.065000	972.665
-19.3414	-7.065000	951.079
-17.3414	-7.065000	959.93
-15.3414	-7.065000	961.438
-13.3414	-7.065000	962.819
-11.3414	-7.065000	959.271
-9.341423	-7.065000	964.384
-7.341423	-7.065000	967.594
-5.341423	-7.065000	968.406
-3.341423	-7.065000	965.22
-1.341423	-7.065000	967.398
0.658577	-7.065000	967.977
2.658577	-7.065000	967.877
4.658577	-7.065000	977.481
6.658577	-7.065000	965.926
8.658577	-7.065000	967.365
10.6586	-7.065000	967.588
12.6586	-7.065000	967.749
14.6586	-7.065000	963.569
16.6586	-7.065000	981.377
18.6586	-7.065000	966.739
20.6586	-7.065000	981.888
22.6586	-7.065000	973.515
24.6586	-7.065000	962.412
-38.3414	-6.065000	959.794
-36.3414	-6.065000	965.92
-34.3414	-6.065000	963.009
-32.3414	-6.065000	965.746
-30.3414	-6.065000	957.963
-28.3414	-6.065000	964.228
-26.3414	-6.065000	963.268
-24.3414	-6.065000	959.376
-22.3414	-6.065000	966.223
-20.3414	-6.065000	967.271
-18.3414	-6.065000	966.56
-16.3414	-6.065000	959.842
-14.3414	-6.065000	964.412
-12.3414	-6.065000	959.494
-10.3414	-6.065000	959.483
-8.341423	-6.065000	959.874
-6.341423	-6.065000	964.079
-4.341423	-6.065000	966.129
-2.341423	-6.065000	968.798
-0.341423	-6.065000	968.171
1.658577	-6.065000	966.42
3.658577	-6.065000	1100
5.658577	-6.065000	962.656
7.658577	-6.065000	961.816
9.658577	-6.065000	966.705
11.6586	-6.065000	961.799
13.6586	-6.065000	959.788
15.6586	-6.065000	964.9
17.6586	-6.065000	960.877
19.6586	-6.065000	1002.79
21.6586	-6.065000	960.235
23.6586	-6.065000	990.331
-39.3414	-5.065000	968.412
-37.3414	-5.065000	965.105
-35.3414	-5.065000	963.778
-33.3414	-5.065000	959.904
-31.3414	-5.065000	964.948
-29.3414	-5.065000	961.169
-27.3414	-5.065000	964.962
-25.3414	-5.065000	1100
-23.3414	-5.065000	964.935
-21.3414	-5.065000	963.558
-19.3414	-5.065000	967.661
-17.3414	-5.065000	969.53
-15.3414	-5.065000	964.46
-13.3414	-5.065000	959.788
-11.3414	-5.065000	964.993
-9.341423	-5.065000	960.976
-7.341423	-5.065000	958.442
-5.341423	-5.065000	966.465
-3.341423	-5.065000	966.348
-1.341423	-5.065000	966.743
0.658577	-5.065000	966.823
2.658577	-5.065000	968.022
4.658577	-5.065000	973.431
6.658577	-5.065000	971.071
8.658577	-5.065000	968.208
10.6586	-5.065000	965.023
12.6586	-5.065000	957.701
14.6586	-5.065000	966.755
16.6586	-5.065000	900
18.6586	-5.065000	973.425
20.6586	-5.065000	961.391
22.6586	-5.065000	964.593
24.6586	-5.065000	963.114
-38.3414	-4.065000	969.545
-36.3414	-4.065000	944.759
-34.3414	-4.065000	964.737
-32.3414	-4.065000	966.005
-30.3414	-4.065000	960.524
-28.3414	-4.065000	964.403
-26.3414	-4.065000	962.732
-24.3414	-4.065000	966.754
-22.3414	-4.065000	950.571
-20.3414	-4.065000	967.892
-18.3414	-4.065000	967.221
-16.3414	-4.065000	966.75
-14.3414	-4.065000	959.651
-12.3414	-4.065000	960.39
-10.3414	-4.065000	964.974
-8.341423	-4.065000	960.033
-6.341423	-4.065000	963.33
-4.341423	-4.065000	967.061
-2.341423	-4.065000	966.408
-0.341423	-4.065000	959.858
1.658577	-4.065000	966.497
3.658577	-4.065000	967.787
5.658577	-4.065000	964.733
7.658577	-4.065000	966.941
9.658577	-4.065000	966.664
11.6586	-4.065000	970.056
13.6586	-4.065000	963.178
15.6586	-4.065000	965.833
17.6586	-4.065000	1100
19.6586	-4.065000	972.259
21.6586	-4.065000	951.391
23.6586	-4.065000	962.214
-39.3414	-3.065000	966.568
-37.3414	-3.065000	976.134
-35.3414	-3.065000	947.341
-33.3414	-3.065000	967.501
-31.3414	-3.065000	965.586
-29.3414	-3.065000	968.308
-27.3414	-3.065000	964.401
-25.3414	-3.065000	971.2
-23.3414	-3.065000	967.386
-21.3414	-3.065000	966.803
-19.3414	-3.065000	969.101
-17.3414	-3.065000	962.182
-15.3414	-3.065000	954.208
-13.3414	-3.065000	961.742
-11.3414	-3.065000	964.128
-9.341423	-3.065000	963.752
-7.341423	-3.065000	964.99
-5.341423	-3.065000	960.748
-3.341423	-3.065000	965.922
-1.341423	-3.065000	957.242
0.658577	-3.065000	963.109
2.658577	-3.065000	967.348
4.658577	-3.065000	967.269
6.658577	-3.065000	959.939
8.658577	-3.065000	959.594
10.6586	-3.065000	966.875
12.6586	-3.065000	964.521
14.6586	-3.065000	968.359
16.6586	-3.065000	1100
18.6586	-3.065000	962.785
20.6586	-3.065000	964.987
22.6586	-3.065000	967.103
24.6586	-3.065000	1100
-38.3414	-2.065000	969.347
-36.3414	-2.065000	970.172
-34.3414	-2.065000	963.456
-32.3414	-2.065000	966.432
-30.3414	-2.065000	987.403
-28.3414	-2.065000	968.61
-26.3414	-2.065000	961.726
-24.3414	-2.065000	968.717
-22.3414	-2.065000	988.639
-20.3414	-2.065000	969.144
-18.3414	-2.065000	965.203
-16.3414	-2.065000	965.87
-14.3414	-2.065000	957.334
-12.3414	-2.065000	962.845
-10.3414	-2.065000	958.976
-8.341423	-2.065000	962.069
-6.341423	-2.065000	962.648
-4.341423	-2.065000	1100
-2.341423	-2.065000	963.43
-0.341423	-2.065000	961.396
1.658577	-2.065000	954.475
3.658577	-2.065000	967.33
5.658577	-2.065000	969.999
7.658577	-2.065000	981.457
9.658577	-2.065000	964.461
11.6586	-2.065000	966.086
13.6586	-2.065000	960.342
15.6586	-2.065000	965.197
17.6586	-2.065000	961.691
19.6586	-2.065000	974.107
21.6586	-2.065000	965.129
23.6586	-2.065000	969.671
-39.3414	-1.065000	966.97
-37.3414	-1.065000	971.444
-35.3414	-1.065000	972.989
-33.3414	-1.065000	900.016
-31.3414	-1.065000	955.959
-29.3414	-1.065000	967.97
-27.3414	-1.065000	963.645
-25.3414	-1.065000	965.159
-23.3414	-1.065000	961.837
-21.3414	-1.065000	965.156
-19.3414	-1.065000	965.228
-17.3414	-1.065000	900
-15.3414	-1.065000	962.116
-13.3414	-1.065000	963.115
-11.3414	-1.065000	959.994
-9.341423	-1.065000	961.864
-7.341423	-1.065000	962.864
-5.341423	-1.065000	960.745
-3.341423	-1.065000	955.913
-1.341423	-1.065000	959.369
0.658577	-1.065000	959.697
2.658577	-1.065000	971.813
4.658577	-1.065000	959.177
6.658577	-1.065000	966.943
8.658577	-1.065000	967.729
10.6586	-1.065000	962.339
12.6586	-1.065000	961.262
14.6586	-1.065000	991.957
16.6586	-1.065000	962.548
18.6586	-1.065000	965.56
20.6586	-1.065000	967.394
22.6586	-1.065000	967.571
24.6586	-1.065000	964.537
-38.3414	-0.065000	951.997
-36.3414	-0.065000	961.666
-34.3414	-0.065000	963.914
-32.3414	-0.065000	943.265
-30.3414	-0.065000	966.514
-28.3414	-0.065000	968.251
-26.3414	-0.065000	965.913
-24.3414	-0.065000	965.024
-22.3414	-0.065000	967.384
-20.3414	-0.065000	966.332
-18.3414	-0.065000	969.613
-16.3414	-0.065000	949.123
-14.3414	-0.065000	961.936
-12.3414	-0.065000	961.189
-10.3414	-0.065000	958.926
-8.341423	-0.065000	964.023
-6.341423	-0.065000	961.642
-4.341423	-0.065000	958.135
-2.341423	-0.065000	980.263
-0.341423	-0.065000	960.606
1.658577	-0.065000	960.829
3.658577	-0.065000	1076.45
5.658577	-0.065000	963.698
7.658577	-0.065000	965.094
9.658577	-0.065000	924.848
11.6586	-0.065000	961.922
13.6586	-0.065000	965.823
15.6586	-0.065000	962.846
17.6586	-0.065000	963.448
19.6586	-0.065000	964.883
21.6586	-0.065000	968.689
23.6586	-0.065000	967.784
-39.3414	0.935000	980.973
-37.3414	0.935000	980.27
-35.3414	0.935000	965.143
-33.3414	0.935000	962.988
-31.3414	0.935000	900
-29.3414	0.935000	967.885
-27.3414	0.935000	966.975
-25.3414	0.935000	965.014
-23.3414	0.935000	960.111
-21.3414	0.935000	953.158
-19.3414	0.935000	961.674
-17.3414	0.935000	959.007
-15.3414	0.935000	965.151
-13.3414	0.935000	960.421
-11.3414	0.935000	963.081
-9.341423	0.935000	959.931
-7.341423	0.935000	966.436
-5.341423	0.935000	961.361
-3.341423	0.935000	968.976
-1.341423	0.935000	960.852
0.658577	0.935000	986.034
2.658577	0.935000	974.429
4.658577	0.935000	959.622
6.658577	0.935000	963.156
8.658577	0.935000	969.366
10.6586	0.935000	956.965
12.6586	0.935000	964.153
14.6586	0.935000	961.717
16.6586	0.935000	966.228
18.6586	0.935000	967.648
20.6586	0.935000	1100
22.6586	0.935000	969.486
24.6586	0.935000	943.202
-38.3414	1.935000	938.856
-36.3414	1.935000	966.619
-34.3414	1.935000	900
-32.3414	1.935000	910.678
-30.3414	1.935000	972.586
-28.3414	1.935000	965.843
-26.3414	1.935000	900
-24.3414	1.935000	966.589
-22.3414	1.935000	962.244
-20.3414	1.935000	963.31
-18.3414	1.935000	968.069
-16.3414	1.935000	968.316
-14.3414	1.935000	956.526
-12.3414	1.935000	959.682
-10.3414	1.935000	962.325
-8.341423	1.935000	962.101
-6.341423	1.935000	960.255
-4.341423	1.935000	960.567
-2.341423	1.935000	962.737
-0.341423	1.935000	968.891
1.658577	1.935000	965.53
3.658577	1.935000	900
5.658577	1.935000	960.696
7.658577	1.935000	963.546
9.658577	1.935000	961.035
11.6586	1.935000	960.762
13.6586	1.935000	962.425
15.6586	1.935000	967.186
17.6586	1.935000	961.636
19.6586	1.935000	965.172
21.6586	1.935000	963.626
23.6586	1.935000	963.416
-39.3414	2.935000	964.369
-37.3414	2.935000	956.336
-35.3414	2.935000	969.105
-33.3414	2.935000	982.234
-31.3414	2.935000	976.3
-29.3414	2.935000	920.553
-27.3414	2.935000	951.952
-25.3414	2.935000	962.549
-23.3414	2.935000	966.691
-21.3414	2.935000	965.412
-19.3414	2.935000	966.883
-17.3414	2.935000	966.538
-15.3414	2.935000	968.122
-13.3414	2.935000	963.836
-11.3414	2.935000	900
-9.341423	2.935000	909.206
-7.341423	2.935000	961.8
-5.341423	2.935000	962.597
-3.341423	2.935000	900
-1.341423	2.935000	964.529
0.658577	2.935000	959.905
2.658577	2.935000	947.6
4.658577	2.935000	965.931
6.658577	2.935000	966.257
8.658577	2.935000	952.276
10.6586	2.935000	960.261
12.6586	2.935000	962.244
14.6586	2.935000	963.504
16.6586	2.935000	966.805
18.6586	2.935000	966.12
20.6586	2.935000	962.682
22.6586	2.935000	961.991
24.6586	2.935000	965.589
-38.3414	3.935000	978.656
-36.3414	3.935000	934.088
-34.3414	3.935000	967.136
-32.3414	3.935000	968.007
-30.3414	3.935000	962.099
-28.3414	3.935000	964.632
-26.3414	3.935000	963.045
-24.3414	3.935000	966.671
-22.3414	3.935000	961.345
-20.3414	3.935000	975.867
-18.3414	3.935000	986.699
-16.3414	3.935000	967.303
-14.3414	3.935000	966.704
-12.3414	3.935000	964.419
-10.3414	3.935000	962.016
-8.341423	3.935000	979.669
-6.341423	3.935000	969.507
-4.341423	3.935000	969.246
-2.341423	3.935000	962.134
-0.341423	3.935000	965.154
1.658577	3.935000	960.425
3.658577	3.935000	965.854
5.658577	3.935000	963.422
7.658577	3.935000	902.36
9.658577	3.935000	959.608
11.6586	3.935000	963.203
13.6586	3.935000	956.372
15.6586	3.935000	962.654
17.6586	3.935000	964.078
19.6586	3.935000	962.905
21.6586	3.935000	1100
23.6586	3.935000	966.348
-39.3414	4.935000	955.52
-37.3414	4.935000	957.377
-35.3414	4.935000	959.24
-33.3414	4.935000	963.845
-31.3414	4.935000	943.928
-29.3414	4.935000	976.064
-27.3414	4.935000	962.339
-25.3414	4.935000	960.654
-23.3414	4.935000	963.437
-21.3414	4.935000	963.421
-19.3414	4.935000	967.882
-17.3414	4.935000	958.424
-15.3414	4.935000	977.198
-13.3414	4.935000	968.38
-11.3414	4.935000	900.225
-9.341423	4.935000	960.409
-7.341423	4.935000	965.333
-5.341423	4.935000	967.628
-3.341423	4.935000	960.734
-1.341423	4.935000	963.048
0.658577	4.935000	963.464
2.658577	4.935000	967.966
4.658577	4.935000	963.777
6.658577	4.935000	963.966
8.658577	4.935000	960.153
10.6586	4.935000	959.836
12.6586	4.935000	964.35
14.6586	4.935000	965.291
16.6586	4.935000	961.064
18.6586	4.935000	966.246
20.6586	4.935000	961.624
22.6586	4.935000	960.206
24.6586	4.935000	967.528
-38.3414	5.935000	958.423
-36.3414	5.935000	956.464
-34.3414	5.935000	963.354
-32.3414	5.935000	964.586
-30.3414	5.935000	966.625
-28.3414	5.935000	967.954
-26.3414	5.935000	966.128
-24.3414	5.935000	959.095
-22.3414	5.935000	963.651
-20.3414	5.935000	962.523
-18.3414	5.935000	963.076
-16.3414	5.935000	963.769
-14.3414	5.935000	960.141
-12.3414	5.935000	964.777
-10.3414	5.935000	959.685
-8.341423	5.935000	958.596
-6.341423	5.935000	1100
-4.341423	5.935000	967.931
-2.341423	5.935000	964.809
-0.341423	5.935000	1100
1.658577	5.935000	963.725
3.658577	5.935000	962.534
5.658577	5.935000	958.321
7.658577	5.935000	946.249
9.658577	5.935000	961.402
11.6586	5.935000	962.474
13.6586	5.935000	962.209
15.6586	5.935000	965.122
17.6586	5.935000	962.528
19.6586	5.935000	960.2
21.6586	5.935000	962.556
23.6586	5.935000	965.852
-39.3414	6.935000	953.827
-37.3414	6.935000	954.442
-35.3414	6.935000	958.362
-33.3414	6.935000	960.23
-31.3414	6.935000	966.247
-29.3414	6.935000	954.593
-27.3414	6.935000	965.273
-25.3414	6.935000	965.159
-23.3414	6.935000	960.013
-21.3414	6.935000	970.377
-19.3414	6.935000	962.457
-17.3414	6.935000	964.133
-15.3414	6.935000	966.708
-13.3414	6.935000	962.535
-11.3414	6.935000	967.932
-9.341423	6.935000	956.001
-7.341423	6.935000	974.862
-5.341423	6.935000	966.134
-3.341423	6.935000	900
-1.341423	6.935000	962.274
0.658577	6.935000	963.181
2.658577	6.935000	975.634
4.658577	6.935000	965.175
6.658577	6.935000	937.033
8.658577	6.935000	962.042
10.6586	6.935000	962.999
12.6586	6.935000	962.964
14.6586	6.935000	967.726
16.6586	6.935000	966.439
18.6586	6.935000	900
20.6586	6.935000	962.839
22.6586	6.935000	960.119
24.6586	6.935000	962.894
-38.3414	7.935000	960.219
-36.3414	7.935000	959.971
-34.3414	7.935000	959.977
-32.3414	7.935000	965.07
-30.3414	7.935000	956.198
-28.3414	7.935000	967.487
-26.3414	7.935000	949.634
-24.3414	7.935000	958.902
-22.3414	7.935000	963.82
-20.3414	7.935000	965.926
-18.3414	7.935000	965.107
-16.3414	7.935000	959.65
-14.3414	7.935000	962.005
-12.3414	7.935000	963.217
-10.3414	7.935000	965.795
-8.341423	7.935000	1100
-6.341423	7.935000	951.916
-4.341423	7.935000	964.385
-2.341423	7.935000	1100
-0.341423	7.935000	962.068
1.658577	7.935000	963.98
3.658577	7.935000	961.982
5.658577	7.935000	974.497
7.658577	7.935000	969.511
9.658577	7.935000	961.884
11.6586	7.935000	961.724
13.6586	7.935000	967.543
15.6586	7.935000	963.805
17.6586	7.935000	972.372
19.6586	7.935000	968.751
21.6586	7.935000	960.903
23.6586	7.935000	937.648
-39.3414	8.935000	957.561
-37.3414	8.935000	959.27
-35.3414	8.935000	960.502
-33.3414	8.935000	958.451
-31.3414	8.935000	961.677
-29.3414	8.935000	900
-27.3414	8.935000	966.573
-25.3414	8.935000	969.509
-23.3414	8.935000	972.776
-21.3414	8.935000	969.076
-19.3414	8.935000	969.632
-17.3414	8.935000	957.768
-15.3414	8.935000	959.104
-13.3414	8.935000	962.941
-11.3414	8.935000	971.743
-9.341423	8.935000	974.513
-7.341423	8.935000	971.238
-5.341423	8.935000	966.653
-3.341423	8.935000	965.403
-1.341423	8.935000	960.092
0.658577	8.935000	969.867
2.658577	8.935000	980.974
4.658577	8.935000	980.777
6.658577	8.935000	980.911
8.658577	8.935000	966.02
10.6586	8.935000	952.929
12.6586	8.935000	975.105
14.6586	8.935000	967.498
16.6586	8.935000	965.953
18.6586	8.935000	968.475
20.6586	8.935000	969.228
22.6586	8.935000	967.552
24.6586	8.935000	967.711
-38.3414	9.935000	959.916
-36.3414	9.935000	958.029
-34.3414	9.935000	959.173
-32.3414	9.935000	963.615
-30.3414	9.935000	957.848
-28.3414	9.935000	964.047
-26.3414	9.935000	1007.27
-24.3414	9.935000	966.569
-22.3414	9.935000	961.412
-20.3414	9.935000	955.859
-18.3414	9.935000	961.576
-16.3414	9.935000	958.892
-14.3414	9.935000	961.316
-12.3414	9.935000	964.749
-10.3414	9.935000	965.943
-8.341423	9.935000	1016.78
-6.341423	9.935000	960.861
-4.341423	9.935000	969.103
-2.341423	9.935000	966.256
-0.341423	9.935000	960.505
1.658577	9.935000	969.854
3.658577	9.935000	934.952
5.658577	9.935000	1046.74
7.658577	9.935000	952.248
9.658577	9.935000	978.104
11.6586	9.935000	956.012
13.6586	9.935000	967.031
15.6586	9.935000	967.877
17.6586	9.935000	967.109
19.6586	9.935000	967.307
21.6586	9.935000	967.988
23.6586	9.935000	968.248
-39.3414	10.935	967.225
-37.3414	10.935	957.182
-35.3414	10.935	961.877
-33.3414	10.935	960.11
-31.3414	10.935	959.87
-29.3414	10.935	961.386
-27.3414	10.935	968.673
-25.3414	10.935	966.968
-23.3414	10.935	964.973
-21.3414	10.935	971.65
-19.3414	10.935	960.609
-17.3414	10.935	945.725
-15.3414	10.935	963.021
-13.3414	10.935	1065.93
-11.3414	10.935	967.72
-9.341423	10.935	957.992
-7.341423	10.935	970.703
-5.341423	10.935	957.328
-3.341423	10.935	969.449
-1.341423	10.935	965.988
0.658577	10.935	958.703
2.658577	10.935	966.217
4.658577	10.935	978.56
6.658577	10.935	903.801
8.658577	10.935	965.661
10.6586	10.935	964.167
12.6586	10.935	958.16
14.6586	10.935	967.051
16.6586	10.935	967.281
18.6586	10.935	968.096
20.6586	10.935	965.934
22.6586	10.935	967.944
24.6586	10.935	966.718
-38.3414	11.935	963.69
-36.3414	11.935	956.809
-34.3414	11.935	969.109
-32.3414	11.935	963.083
-30.3414	11.935	955.748
-28.3414	11.935	1088.88
-26.3414	11.935	967.884
-24.3414	11.935	970.728
-22.3414	11.935	967.733
-20.3414	11.935	970.393
-18.3414	11.935	962.556
-16.3414	11.935	956.642
-14.3414	11.935	962.774
-12.3414	11.935	962.274
-10.3414	11.935	956.592
-8.341423	11.935	969.631
-6.341423	11.935	968.642
-4.341423	11.935	962.62
-2.341423	11.935	966.516
-0.341423	11.935	965.455
1.658577	11.935	961.389
3.658577	11.935	900
5.658577	11.935	1044.92
7.658577	11.935	972.55
9.658577	11.935	1100
11.6586	11.935	967.309
13.6586	11.935	966.89
15.6586	11.935	967.497
17.6586	11.935	959.769
19.6586	11.935	967.614
21.6586	11.935	969.527
23.6586	11.935	965.231
-39.3414	12.935	960.569
-37.3414	12.935	959.452
-35.3414	12.935	964.056
-33.3414	12.935	963.036
-31.3414	12.935	957.052
-29.3414	12.935	964.469
-27.3414	12.935	967.575
-25.3414	12.935	968.564
-23.3414	12.935	1100
-21.3414	12.935	960.967
-19.3414	12.935	961.795
-17.3414	12.935	965.589
-15.3414	12.935	965.336
-13.3414	12.935	968.197
-11.3414	12.935	961.8
-9.341423	12.935	998.429
-7.341423	12.935	969.489
-5.341423	12.935	965.204
-3.341423	12.935	956.885
-1.341423	12.935	910.717
0.658577	12.935	966.59
2.658577	12.935	900.662
4.658577	12.935	964.711
6.658577	12.935	989.813
8.658577	12.935	959.465
10.6586	12.935	965.203
12.6586	12.935	966.053
14.6586	12.935	968.016
16.6586	12.935	964.912
18.6586	12.935	968.63
20.6586	12.935	966.075
22.6586	12.935	965.343
24.6586	12.935	965.302
-38.3414	13.935	951.24
-36.3414	13.935	967.262
-34.3414	13.935	956.912
-32.3414	13.935	961.059
-30.3414	13.935	962.609
-28.3414	13.935	969.592
-26.3414	13.935	934.338
-24.3414	13.935	965.368
-22.3414	13.935	957.597
-20.3414	13.935	958.397
-18.3414	13.935	908.529
-16.3414	13.935	958.039
-14.3414	13.935	971.119
-12.3414	13.935	963.664
-10.3414	13.935	966.469
-8.341423	13.935	976.065
-6.341423	13.935	968.598
-4.341423	13.935	979.748
-2.341423	13.935	964.741
-0.341423	13.935	957.277
1.658577	13.935	961.554
3.658577	13.935	968.529
5.658577	13.935	965.631
7.658577	13.935	965.464
9.658577	13.935	966.755
11.6586	13.935	966.445
13.6586	13.935	966.397
15.6586	13.935	967.248
17.6586	13.935	968.121
19.6586	13.935	968.078
21.6586	13.935	968.342
23.6586	13.935	965.943
-39.3414	14.935	962.45
-37.3414	14.935	963.348
-35.3414	14.935	961.818
-33.3414	14.935	960.258
-31.3414	14.935	964.024
-29.3414	14.935	1015.59
-27.3414	14.935	987.22
-25.3414	14.935	963.056
-23.3414	14.935	967.266
-21.3414	14.935	900
-19.3414	14.935	958.019
-17.3414	14.935	966.497
-15.3414	14.935	970.188
-13.3414	14.935	963.581
-11.3414	14.935	962.626
-9.341423	14.935	967.611
-7.341423	14.935	968.308
-5.341423	14.935	959.872
-3.341423	14.935	962.787
-1.341423	14.935	1100
0.658577	14.935	1100
2.658577	14.935	965.569
4.658577	14.935	967.862
6.658577	14.935	968.177
8.658577	14.935	965.491
10.6586	14.935	966.147
12.6586	14.935	967.552
14.6586	14.935	966.528
16.6586	14.935	967.424
18.6586	14.935	965.663
20.6586	14.935	965.824
22.6586	14.935	966.532
24.6586	14.935	964.989
-38.3414	15.935	957.526
-36.3414	15.935	960.935
-34.3414	15.935	962.616
-32.3414	15.935	960.726
-30.3414	15.935	964.506
-28.3414	15.935	971.197
-26.3414	15.935	967.485
-24.3414	15.935	966.566
-22.3414	15.935	966.245
-20.3414	15.935	963.645
-18.3414	15.935	960.173
-16.3414	15.935	962.286
-14.3414	15.935	961.368
-12.3414	15.935	965.334
-10.3414	15.935	967.724
-8.341423	15.935	966.245
-6.341423	15.935	964.642
-4.341423	15.935	966.792
-2.341423	15.935	964.684
-0.341423	15.935	956.215
1.658577	15.935	961.585
3.658577	15.935	970.279
5.658577	15.935	968.457
7.658577	15.935	967.335
9.658577	15.935	986.129
11.6586	15.935	965.302
13.6586	15.935	968.098
15.6586	15.935	968.233
17.6586	15.935	967.352
19.6586	15.935	964.975
21.6586	15.935	968.589
23.6586	15.935	967.001
24.6586	15.935	970.056