File: data/derived_data/raman/20170920_Gr-NH2_for_Radisurf/20170920 Gr-NH for Radisurf map 2/SiO2 int.txt
#XList		#YList		#IList
-39.3414	-21.065	0.000000
-37.3414	-21.065	0.000000
-35.3414	-21.065	0.000000
-33.3414	-21.065	0.000000
-31.3414	-21.065	0.000000
-29.3414	-21.065	0.000000
-27.3414	-21.065	4.476960
-25.3414	-21.065	21.4754
-23.3414	-21.065	36.3741
-21.3414	-21.065	17.1198
-19.3414	-21.065	34.5896
-17.3414	-21.065	29.358
-15.3414	-21.065	0.000000
-13.3414	-21.065	0.000000
-11.3414	-21.065	26.676
-9.341423	-21.065	32.2228
-7.341423	-21.065	0.000000
-5.341423	-21.065	9.721407
-3.341423	-21.065	28.9203
-1.341423	-21.065	0.000000
0.658577	-21.065	0.355217
2.658577	-21.065	10.2033
4.658577	-21.065	0.000000
6.658577	-21.065	36.0195
8.658577	-21.065	36.8946
10.6586	-21.065	21.5111
12.6586	-21.065	25.2544
14.6586	-21.065	0.000000
16.6586	-21.065	0.000000
18.6586	-21.065	0.000000
20.6586	-21.065	11.0675
22.6586	-21.065	32.2281
24.6586	-21.065	34.7844
-38.3414	-20.065	0.000000
-36.3414	-20.065	0.000000
-34.3414	-20.065	89.8116
-32.3414	-20.065	0.000000
-30.3414	-20.065	0.000000
-28.3414	-20.065	1.006021
-26.3414	-20.065	137.341
-24.3414	-20.065	13.7729
-22.3414	-20.065	33.7811
-20.3414	-20.065	9.276231
-18.3414	-20.065	15.6233
-16.3414	-20.065	0.000000
-14.3414	-20.065	0.000000
-12.3414	-20.065	0.000000
-10.3414	-20.065	29.1192
-8.341423	-20.065	0.000000
-6.341423	-20.065	9.916734
-4.341423	-20.065	28.5219
-2.341423	-20.065	32.5862
-0.341423	-20.065	0.000000
1.658577	-20.065	0.000000
3.658577	-20.065	2.887646
5.658577	-20.065	20.6085
7.658577	-20.065	33.7233
9.658577	-20.065	21.5472
11.6586	-20.065	12.9218
13.6586	-20.065	0.000000
15.6586	-20.065	0.000000
17.6586	-20.065	20.944
19.6586	-20.065	0.000000
21.6586	-20.065	13.2872
23.6586	-20.065	36.3014
-39.3414	-19.065	0.000000
-37.3414	-19.065	0.000000
-35.3414	-19.065	0.000000
-33.3414	-19.065	17.2359
-31.3414	-19.065	0.000000
-29.3414	-19.065	0.000000
-27.3414	-19.065	0.000000
-25.3414	-19.065	0.000000
-23.3414	-19.065	0.000000
-21.3414	-19.065	0.000000
-19.3414	-19.065	0.000000
-17.3414	-19.065	0.000000
-15.3414	-19.065	0.000000
-13.3414	-19.065	0.000000
-11.3414	-19.065	21.8611
-9.341423	-19.065	0.000000
-7.341423	-19.065	0.000000
-5.341423	-19.065	9.008625
-3.341423	-19.065	0.000000
-1.341423	-19.065	0.000000
0.658577	-19.065	0.000000
2.658577	-19.065	0.000000
4.658577	-19.065	5.759038
6.658577	-19.065	34.9648
8.658577	-19.065	19.5172
10.6586	-19.065	5.355343
12.6586	-19.065	14.6829
14.6586	-19.065	14.1249
16.6586	-19.065	11.6347
18.6586	-19.065	0.000000
20.6586	-19.065	0.000000
22.6586	-19.065	33.6531
24.6586	-19.065	34.7416
-38.3414	-18.065	0.000000
-36.3414	-18.065	0.000000
-34.3414	-18.065	34.2945
-32.3414	-18.065	0.000000
-30.3414	-18.065	0.000000
-28.3414	-18.065	0.000000
-26.3414	-18.065	0.000000
-24.3414	-18.065	0.000000
-22.3414	-18.065	0.000000
-20.3414	-18.065	0.000000
-18.3414	-18.065	97.4458
-16.3414	-18.065	0.000000
-14.3414	-18.065	0.000000
-12.3414	-18.065	0.000000
-10.3414	-18.065	0.000000
-8.341423	-18.065	15.3168
-6.341423	-18.065	0.000000
-4.341423	-18.065	9.006940
-2.341423	-18.065	0.000000
-0.341423	-18.065	0.000000
1.658577	-18.065	0.000000
3.658577	-18.065	0.000000
5.658577	-18.065	27.6434
7.658577	-18.065	0.000000
9.658577	-18.065	0.000000
11.6586	-18.065	0.000000
13.6586	-18.065	7.388925
15.6586	-18.065	10.0404
17.6586	-18.065	11.7407
19.6586	-18.065	17.239
21.6586	-18.065	24.4647
23.6586	-18.065	0.000000
-39.3414	-17.065	0.000000
-37.3414	-17.065	0.000000
-35.3414	-17.065	34.5022
-33.3414	-17.065	35.5815
-31.3414	-17.065	0.000000
-29.3414	-17.065	0.000000
-27.3414	-17.065	0.000000
-25.3414	-17.065	0.000000
-23.3414	-17.065	0.000000
-21.3414	-17.065	0.000000
-19.3414	-17.065	25.4864
-17.3414	-17.065	17.2968
-15.3414	-17.065	0.000000
-13.3414	-17.065	0.000000
-11.3414	-17.065	0.000000
-9.341423	-17.065	0.000000
-7.341423	-17.065	28.12
-5.341423	-17.065	1449.8
-3.341423	-17.065	7.750365
-1.341423	-17.065	0.000000
0.658577	-17.065	0.000000
2.658577	-17.065	0.000000
4.658577	-17.065	6.168574
6.658577	-17.065	88.2762
8.658577	-17.065	0.000000
10.6586	-17.065	0.000000
12.6586	-17.065	0.000000
14.6586	-17.065	12.195
16.6586	-17.065	18.9913
18.6586	-17.065	9.283985
20.6586	-17.065	33.8264
22.6586	-17.065	14.8807
24.6586	-17.065	16.9004
-38.3414	-16.065	289.836
-36.3414	-16.065	27.9468
-34.3414	-16.065	22.0088
-32.3414	-16.065	0.000000
-30.3414	-16.065	0.000000
-28.3414	-16.065	0.000000
-26.3414	-16.065	0.000000
-24.3414	-16.065	939.755
-22.3414	-16.065	0.000000
-20.3414	-16.065	32.9883
-18.3414	-16.065	32.5431
-16.3414	-16.065	0.000000
-14.3414	-16.065	0.000000
-12.3414	-16.065	0.000000
-10.3414	-16.065	8.462601
-8.341423	-16.065	18.678
-6.341423	-16.065	1.161778
-4.341423	-16.065	0.000000
-2.341423	-16.065	0.000000
-0.341423	-16.065	0.000000
1.658577	-16.065	0.000000
3.658577	-16.065	0.000000
5.658577	-16.065	9.375045
7.658577	-16.065	0.000000
9.658577	-16.065	0.000000
11.6586	-16.065	0.000000
13.6586	-16.065	28.8615
15.6586	-16.065	34.3734
17.6586	-16.065	2.298564
19.6586	-16.065	11.2835
21.6586	-16.065	11.6728
23.6586	-16.065	0.000000
-39.3414	-15.065	8.062482
-37.3414	-15.065	30.7599
-35.3414	-15.065	0.000000
-33.3414	-15.065	0.000000
-31.3414	-15.065	0.000000
-29.3414	-15.065	0.000000
-27.3414	-15.065	0.000000
-25.3414	-15.065	0.000000
-23.3414	-15.065	0.000000
-21.3414	-15.065	6.845635
-19.3414	-15.065	35.2889
-17.3414	-15.065	2000
-15.3414	-15.065	0.000000
-13.3414	-15.065	0.000000
-11.3414	-15.065	21.3207
-9.341423	-15.065	0.000000
-7.341423	-15.065	0.000000
-5.341423	-15.065	0.000000
-3.341423	-15.065	0.000000
-1.341423	-15.065	0.000000
0.658577	-15.065	0.000000
2.658577	-15.065	0.000000
4.658577	-15.065	0.000000
6.658577	-15.065	0.000000
8.658577	-15.065	0.000000
10.6586	-15.065	0.000000
12.6586	-15.065	30.7363
14.6586	-15.065	15.8234
16.6586	-15.065	25.937
18.6586	-15.065	0.000000
20.6586	-15.065	29.4772
22.6586	-15.065	0.000000
24.6586	-15.065	25.3189
-38.3414	-14.065	24.5107
-36.3414	-14.065	0.000000
-34.3414	-14.065	0.000000
-32.3414	-14.065	0.000000
-30.3414	-14.065	0.000000
-28.3414	-14.065	0.000000
-26.3414	-14.065	0.000000
-24.3414	-14.065	0.000000
-22.3414	-14.065	0.000000
-20.3414	-14.065	19.2093
-18.3414	-14.065	15.2127
-16.3414	-14.065	0.000000
-14.3414	-14.065	0.000000
-12.3414	-14.065	205.342
-10.3414	-14.065	0.000000
-8.341423	-14.065	0.000000
-6.341423	-14.065	0.000000
-4.341423	-14.065	0.000000
-2.341423	-14.065	0.000000
-0.341423	-14.065	0.000000
1.658577	-14.065	0.000000
3.658577	-14.065	0.000000
5.658577	-14.065	0.000000
7.658577	-14.065	0.000000
9.658577	-14.065	0.000000
11.6586	-14.065	35.565
13.6586	-14.065	7.641765
15.6586	-14.065	34.696
17.6586	-14.065	32.3218
19.6586	-14.065	20.4448
21.6586	-14.065	5.737255
23.6586	-14.065	10.3556
-39.3414	-13.065	0.000000
-37.3414	-13.065	0.000000
-35.3414	-13.065	0.000000
-33.3414	-13.065	0.000000
-31.3414	-13.065	0.000000
-29.3414	-13.065	0.000000
-27.3414	-13.065	0.000000
-25.3414	-13.065	0.000000
-23.3414	-13.065	0.000000
-21.3414	-13.065	4.664998
-19.3414	-13.065	5.159335
-17.3414	-13.065	7.516199
-15.3414	-13.065	20.5547
-13.3414	-13.065	34.0529
-11.3414	-13.065	0.000000
-9.341423	-13.065	0.000000
-7.341423	-13.065	0.000000
-5.341423	-13.065	0.000000
-3.341423	-13.065	0.000000
-1.341423	-13.065	0.000000
0.658577	-13.065	0.000000
2.658577	-13.065	0.000000
4.658577	-13.065	0.000000
6.658577	-13.065	15.9965
8.658577	-13.065	0.000000
10.6586	-13.065	32.4101
12.6586	-13.065	29.9971
14.6586	-13.065	8.550475
16.6586	-13.065	28.6595
18.6586	-13.065	59.8344
20.6586	-13.065	0.000000
22.6586	-13.065	0.000000
24.6586	-13.065	0.000000
-38.3414	-12.065	0.000000
-36.3414	-12.065	0.000000
-34.3414	-12.065	0.000000
-32.3414	-12.065	0.000000
-30.3414	-12.065	0.000000
-28.3414	-12.065	0.000000
-26.3414	-12.065	0.000000
-24.3414	-12.065	9.960114
-22.3414	-12.065	0.856248
-20.3414	-12.065	0.000000
-18.3414	-12.065	2000
-16.3414	-12.065	0.000000
-14.3414	-12.065	28.4426
-12.3414	-12.065	6.136269
-10.3414	-12.065	0.000000
-8.341423	-12.065	0.000000
-6.341423	-12.065	0.000000
-4.341423	-12.065	0.000000
-2.341423	-12.065	0.000000
-0.341423	-12.065	0.000000
1.658577	-12.065	0.000000
3.658577	-12.065	0.000000
5.658577	-12.065	0.000000
7.658577	-12.065	43.6865
9.658577	-12.065	32.4902
11.6586	-12.065	35.6785
13.6586	-12.065	96.0685
15.6586	-12.065	24.6562
17.6586	-12.065	14.2233
19.6586	-12.065	0.000000
21.6586	-12.065	0.000000
23.6586	-12.065	0.000000
-39.3414	-11.065	0.000000
-37.3414	-11.065	0.000000
-35.3414	-11.065	0.000000
-33.3414	-11.065	0.000000
-31.3414	-11.065	0.000000
-29.3414	-11.065	0.000000
-27.3414	-11.065	0.000000
-25.3414	-11.065	1.480444
-23.3414	-11.065	0.000000
-21.3414	-11.065	18.2652
-19.3414	-11.065	5.670112
-17.3414	-11.065	0.000000
-15.3414	-11.065	0.000000
-13.3414	-11.065	27.6777
-11.3414	-11.065	12.8696
-9.341423	-11.065	3.730679
-7.341423	-11.065	0.000000
-5.341423	-11.065	0.000000
-3.341423	-11.065	0.000000
-1.341423	-11.065	0.000000
0.658577	-11.065	0.000000
2.658577	-11.065	0.000000
4.658577	-11.065	0.000000
6.658577	-11.065	0.000000
8.658577	-11.065	13.7874
10.6586	-11.065	35.2707
12.6586	-11.065	32.9487
14.6586	-11.065	0.000000
16.6586	-11.065	16.6746
18.6586	-11.065	2000
20.6586	-11.065	7.513677
22.6586	-11.065	2.518161
24.6586	-11.065	0.000000
-38.3414	-10.065	0.000000
-36.3414	-10.065	0.000000
-34.3414	-10.065	0.000000
-32.3414	-10.065	0.000000
-30.3414	-10.065	228.263
-28.3414	-10.065	0.000000
-26.3414	-10.065	0.000000
-24.3414	-10.065	10.5485
-22.3414	-10.065	31.707
-20.3414	-10.065	15.036
-18.3414	-10.065	2000
-16.3414	-10.065	0.000000
-14.3414	-10.065	0.000000
-12.3414	-10.065	1189.48
-10.3414	-10.065	16.7572
-8.341423	-10.065	6.309383
-6.341423	-10.065	0.000000
-4.341423	-10.065	0.000000
-2.341423	-10.065	0.000000
-0.341423	-10.065	0.000000
1.658577	-10.065	0.000000
3.658577	-10.065	3.615818
5.658577	-10.065	0.000000
7.658577	-10.065	0.000000
9.658577	-10.065	35.6728
11.6586	-10.065	36.2306
13.6586	-10.065	3.780650
15.6586	-10.065	6.642180
17.6586	-10.065	4.743272
19.6586	-10.065	0.000000
21.6586	-10.065	3.081162
23.6586	-10.065	0.000000
-39.3414	-9.065000	0.000000
-37.3414	-9.065000	0.000000
-35.3414	-9.065000	0.000000
-33.3414	-9.065000	0.000000
-31.3414	-9.065000	0.000000
-29.3414	-9.065000	0.000000
-27.3414	-9.065000	0.000000
-25.3414	-9.065000	67.0289
-23.3414	-9.065000	32.6418
-21.3414	-9.065000	33.4539
-19.3414	-9.065000	15.3176
-17.3414	-9.065000	15.3921
-15.3414	-9.065000	0.000000
-13.3414	-9.065000	0.000000
-11.3414	-9.065000	0.000000
-9.341423	-9.065000	17.9742
-7.341423	-9.065000	4.748734
-5.341423	-9.065000	0.000000
-3.341423	-9.065000	0.000000
-1.341423	-9.065000	0.000000
0.658577	-9.065000	57.6801
2.658577	-9.065000	9.633465
4.658577	-9.065000	0.000000
6.658577	-9.065000	0.000000
8.658577	-9.065000	33.8196
10.6586	-9.065000	38.9838
12.6586	-9.065000	15.8226
14.6586	-9.065000	9.454193
16.6586	-9.065000	6.824028
18.6586	-9.065000	7.611619
20.6586	-9.065000	3.990817
22.6586	-9.065000	1.884012
24.6586	-9.065000	30.0488
-38.3414	-8.065000	0.000000
-36.3414	-8.065000	0.000000
-34.3414	-8.065000	0.000000
-32.3414	-8.065000	0.000000
-30.3414	-8.065000	0.000000
-28.3414	-8.065000	0.000000
-26.3414	-8.065000	0.000000
-24.3414	-8.065000	6.669180
-22.3414	-8.065000	33.7998
-20.3414	-8.065000	3.548739
-18.3414	-8.065000	7.443484
-16.3414	-8.065000	0.000000
-14.3414	-8.065000	0.000000
-12.3414	-8.065000	0.000000
-10.3414	-8.065000	0.000000
-8.341423	-8.065000	16.0232
-6.341423	-8.065000	12.1666
-4.341423	-8.065000	3.027746
-2.341423	-8.065000	6.946182
-0.341423	-8.065000	18.7508
1.658577	-8.065000	30.9607
3.658577	-8.065000	20.05
5.658577	-8.065000	0.000000
7.658577	-8.065000	14.7811
9.658577	-8.065000	35.9029
11.6586	-8.065000	37.1854
13.6586	-8.065000	0.000000
15.6586	-8.065000	17.9957
17.6586	-8.065000	0.000000
19.6586	-8.065000	64.5867
21.6586	-8.065000	5.672205
23.6586	-8.065000	45.7341
-39.3414	-7.065000	0.000000
-37.3414	-7.065000	0.000000
-35.3414	-7.065000	0.000000
-33.3414	-7.065000	0.000000
-31.3414	-7.065000	0.000000
-29.3414	-7.065000	0.000000
-27.3414	-7.065000	16.0974
-25.3414	-7.065000	0.000000
-23.3414	-7.065000	8.487825
-21.3414	-7.065000	8.755415
-19.3414	-7.065000	0.000000
-17.3414	-7.065000	0.000000
-15.3414	-7.065000	0.000000
-13.3414	-7.065000	0.000000
-11.3414	-7.065000	0.000000
-9.341423	-7.065000	0.000000
-7.341423	-7.065000	33.2619
-5.341423	-7.065000	28.3865
-3.341423	-7.065000	18.5753
-1.341423	-7.065000	32.0234
0.658577	-7.065000	31.5502
2.658577	-7.065000	14.3494
4.658577	-7.065000	0.000000
6.658577	-7.065000	23.4747
8.658577	-7.065000	35.4818
10.6586	-7.065000	25.2098
12.6586	-7.065000	33.7221
14.6586	-7.065000	0.000000
16.6586	-7.065000	0.785669
18.6586	-7.065000	9.031467
20.6586	-7.065000	0.000000
22.6586	-7.065000	12.0283
24.6586	-7.065000	25.5284
-38.3414	-6.065000	0.000000
-36.3414	-6.065000	0.000000
-34.3414	-6.065000	0.000000
-32.3414	-6.065000	0.000000
-30.3414	-6.065000	0.000000
-28.3414	-6.065000	0.000000
-26.3414	-6.065000	64.9775
-24.3414	-6.065000	0.000000
-22.3414	-6.065000	0.000000
-20.3414	-6.065000	24.1921
-18.3414	-6.065000	36.7868
-16.3414	-6.065000	0.000000
-14.3414	-6.065000	0.000000
-12.3414	-6.065000	0.000000
-10.3414	-6.065000	0.000000
-8.341423	-6.065000	0.000000
-6.341423	-6.065000	20.704
-4.341423	-6.065000	35.0632
-2.341423	-6.065000	27.7142
-0.341423	-6.065000	35.5792
1.658577	-6.065000	35.553
3.658577	-6.065000	0.000000
5.658577	-6.065000	0.000000
7.658577	-6.065000	14.9119
9.658577	-6.065000	29.9979
11.6586	-6.065000	0.000000
13.6586	-6.065000	0.000000
15.6586	-6.065000	0.000000
17.6586	-6.065000	6.860983
19.6586	-6.065000	0.000000
21.6586	-6.065000	0.000000
23.6586	-6.065000	0.000000
-39.3414	-5.065000	32.2692
-37.3414	-5.065000	0.000000
-35.3414	-5.065000	0.000000
-33.3414	-5.065000	0.000000
-31.3414	-5.065000	0.000000
-29.3414	-5.065000	0.000000
-27.3414	-5.065000	46.9315
-25.3414	-5.065000	0.000000
-23.3414	-5.065000	70.3969
-21.3414	-5.065000	0.000000
-19.3414	-5.065000	35.4038
-17.3414	-5.065000	36.0945
-15.3414	-5.065000	0.000000
-13.3414	-5.065000	0.000000
-11.3414	-5.065000	0.000000
-9.341423	-5.065000	0.000000
-7.341423	-5.065000	0.000000
-5.341423	-5.065000	13.9831
-3.341423	-5.065000	35.3583
-1.341423	-5.065000	31.5528
0.658577	-5.065000	24.6966
2.658577	-5.065000	34.6107
4.658577	-5.065000	18.2632
6.658577	-5.065000	10.4675
8.658577	-5.065000	35.8259
10.6586	-5.065000	0.000000
12.6586	-5.065000	0.000000
14.6586	-5.065000	0.000000
16.6586	-5.065000	0.000000
18.6586	-5.065000	5.522736
20.6586	-5.065000	0.000000
22.6586	-5.065000	20.9996
24.6586	-5.065000	0.000000
-38.3414	-4.065000	27.5881
-36.3414	-4.065000	0.000000
-34.3414	-4.065000	0.000000
-32.3414	-4.065000	2000
-30.3414	-4.065000	93.6325
-28.3414	-4.065000	15.733
-26.3414	-4.065000	0.000000
-24.3414	-4.065000	0.000000
-22.3414	-4.065000	2000
-20.3414	-4.065000	10.2883
-18.3414	-4.065000	30.8814
-16.3414	-4.065000	26.8996
-14.3414	-4.065000	0.000000
-12.3414	-4.065000	0.000000
-10.3414	-4.065000	0.000000
-8.341423	-4.065000	0.000000
-6.341423	-4.065000	0.000000
-4.341423	-4.065000	33.7233
-2.341423	-4.065000	34.8918
-0.341423	-4.065000	17.9183
1.658577	-4.065000	25.517
3.658577	-4.065000	34.2955
5.658577	-4.065000	18.2381
7.658577	-4.065000	10.5476
9.658577	-4.065000	72.2824
11.6586	-4.065000	13.7048
13.6586	-4.065000	0.000000
15.6586	-4.065000	25.2918
17.6586	-4.065000	0.000000
19.6586	-4.065000	9.250743
21.6586	-4.065000	6.170706
23.6586	-4.065000	0.000000
-39.3414	-3.065000	36.8992
-37.3414	-3.065000	8.902094
-35.3414	-3.065000	0.000000
-33.3414	-3.065000	17.7521
-31.3414	-3.065000	30.3086
-29.3414	-3.065000	31.5953
-27.3414	-3.065000	21.1137
-25.3414	-3.065000	0.000000
-23.3414	-3.065000	3.352411
-21.3414	-3.065000	0.000000
-19.3414	-3.065000	12.9082
-17.3414	-3.065000	15.8613
-15.3414	-3.065000	32.2037
-13.3414	-3.065000	0.000000
-11.3414	-3.065000	0.000000
-9.341423	-3.065000	0.000000
-7.341423	-3.065000	0.000000
-5.341423	-3.065000	0.000000
-3.341423	-3.065000	26.0876
-1.341423	-3.065000	0.000000
0.658577	-3.065000	0.000000
2.658577	-3.065000	33.1534
4.658577	-3.065000	30.5309
6.658577	-3.065000	0.000000
8.658577	-3.065000	0.000000
10.6586	-3.065000	17.2195
12.6586	-3.065000	0.000000
14.6586	-3.065000	648.098
16.6586	-3.065000	0.000000
18.6586	-3.065000	155.911
20.6586	-3.065000	0.000000
22.6586	-3.065000	31.0718
24.6586	-3.065000	0.000000
-38.3414	-2.065000	31.218
-36.3414	-2.065000	27.416
-34.3414	-2.065000	28.4903
-32.3414	-2.065000	31.4393
-30.3414	-2.065000	8.018224
-28.3414	-2.065000	33.9942
-26.3414	-2.065000	0.000000
-24.3414	-2.065000	0.000000
-22.3414	-2.065000	0.000000
-20.3414	-2.065000	24.0517
-18.3414	-2.065000	33.1791
-16.3414	-2.065000	12.6217
-14.3414	-2.065000	0.000000
-12.3414	-2.065000	0.000000
-10.3414	-2.065000	0.000000
-8.341423	-2.065000	0.000000
-6.341423	-2.065000	0.000000
-4.341423	-2.065000	0.000000
-2.341423	-2.065000	0.000000
-0.341423	-2.065000	0.000000
1.658577	-2.065000	12.4139
3.658577	-2.065000	29.832
5.658577	-2.065000	10.8744
7.658577	-2.065000	0.000000
9.658577	-2.065000	15.4964
11.6586	-2.065000	0.000000
13.6586	-2.065000	0.000000
15.6586	-2.065000	0.000000
17.6586	-2.065000	0.000000
19.6586	-2.065000	13.4035
21.6586	-2.065000	33.4127
23.6586	-2.065000	6.820030
-39.3414	-1.065000	26.427
-37.3414	-1.065000	9.508182
-35.3414	-1.065000	7.158626
-33.3414	-1.065000	1.421310
-31.3414	-1.065000	6.949998
-29.3414	-1.065000	32.1665
-27.3414	-1.065000	35.4004
-25.3414	-1.065000	0.000000
-23.3414	-1.065000	15.1111
-21.3414	-1.065000	24.6791
-19.3414	-1.065000	30.3333
-17.3414	-1.065000	0.000000
-15.3414	-1.065000	0.000000
-13.3414	-1.065000	0.000000
-11.3414	-1.065000	0.000000
-9.341423	-1.065000	0.000000
-7.341423	-1.065000	0.000000
-5.341423	-1.065000	0.000000
-3.341423	-1.065000	15.4343
-1.341423	-1.065000	0.000000
0.658577	-1.065000	0.000000
2.658577	-1.065000	11.2538
4.658577	-1.065000	45.8097
6.658577	-1.065000	24.2496
8.658577	-1.065000	30.9702
10.6586	-1.065000	9.681172
12.6586	-1.065000	0.000000
14.6586	-1.065000	0.000000
16.6586	-1.065000	0.000000
18.6586	-1.065000	26.3557
20.6586	-1.065000	17.5242
22.6586	-1.065000	15.4378
24.6586	-1.065000	0.000000
-38.3414	-0.065000	3.031906
-36.3414	-0.065000	0.000000
-34.3414	-0.065000	0.000000
-32.3414	-0.065000	7.384125
-30.3414	-0.065000	1.724338
-28.3414	-0.065000	37.5044
-26.3414	-0.065000	30.8079
-24.3414	-0.065000	0.000000
-22.3414	-0.065000	30.6025
-20.3414	-0.065000	27.9783
-18.3414	-0.065000	10.6278
-16.3414	-0.065000	6.105926
-14.3414	-0.065000	0.000000
-12.3414	-0.065000	0.000000
-10.3414	-0.065000	0.000000
-8.341423	-0.065000	0.000000
-6.341423	-0.065000	0.000000
-4.341423	-0.065000	13.8645
-2.341423	-0.065000	0.000000
-0.341423	-0.065000	0.000000
1.658577	-0.065000	9.443768
3.658577	-0.065000	0.000000
5.658577	-0.065000	0.000000
7.658577	-0.065000	22.2175
9.658577	-0.065000	0.000000
11.6586	-0.065000	0.000000
13.6586	-0.065000	0.000000
15.6586	-0.065000	0.000000
17.6586	-0.065000	0.000000
19.6586	-0.065000	28.9491
21.6586	-0.065000	0.000000
23.6586	-0.065000	0.000000
-39.3414	0.935000	0.000000
-37.3414	0.935000	0.000000
-35.3414	0.935000	0.000000
-33.3414	0.935000	0.000000
-31.3414	0.935000	0.000000
-29.3414	0.935000	33.018
-27.3414	0.935000	34.5701
-25.3414	0.935000	0.000000
-23.3414	0.935000	0.000000
-21.3414	0.935000	0.461544
-19.3414	0.935000	5.676703
-17.3414	0.935000	0.000000
-15.3414	0.935000	25.8256
-13.3414	0.935000	0.000000
-11.3414	0.935000	0.000000
-9.341423	0.935000	0.000000
-7.341423	0.935000	0.000000
-5.341423	0.935000	0.000000
-3.341423	0.935000	12.483
-1.341423	0.935000	0.000000
0.658577	0.935000	0.000000
2.658577	0.935000	12.3589
4.658577	0.935000	4.756679
6.658577	0.935000	0.000000
8.658577	0.935000	0.000000
10.6586	0.935000	0.000000
12.6586	0.935000	0.000000
14.6586	0.935000	0.000000
16.6586	0.935000	0.000000
18.6586	0.935000	26.1903
20.6586	0.935000	0.000000
22.6586	0.935000	0.000000
24.6586	0.935000	32.2059
-38.3414	1.935000	2000
-36.3414	1.935000	0.000000
-34.3414	1.935000	0.000000
-32.3414	1.935000	0.000000
-30.3414	1.935000	8.055580
-28.3414	1.935000	33.3871
-26.3414	1.935000	0.000000
-24.3414	1.935000	0.000000
-22.3414	1.935000	0.000000
-20.3414	1.935000	0.000000
-18.3414	1.935000	32.3119
-16.3414	1.935000	35.9903
-14.3414	1.935000	0.000000
-12.3414	1.935000	0.000000
-10.3414	1.935000	0.000000
-8.341423	1.935000	0.000000
-6.341423	1.935000	0.000000
-4.341423	1.935000	0.000000
-2.341423	1.935000	0.000000
-0.341423	1.935000	0.000000
1.658577	1.935000	22.1642
3.658577	1.935000	0.000000
5.658577	1.935000	0.000000
7.658577	1.935000	26.2025
9.658577	1.935000	0.000000
11.6586	1.935000	0.000000
13.6586	1.935000	0.000000
15.6586	1.935000	0.000000
17.6586	1.935000	0.000000
19.6586	1.935000	20.448
21.6586	1.935000	0.000000
23.6586	1.935000	0.000000
-39.3414	2.935000	0.000000
-37.3414	2.935000	0.000000
-35.3414	2.935000	13.6107
-33.3414	2.935000	0.000000
-31.3414	2.935000	4.501783
-29.3414	2.935000	0.000000
-27.3414	2.935000	5.507660
-25.3414	2.935000	0.000000
-23.3414	2.935000	0.000000
-21.3414	2.935000	0.000000
-19.3414	2.935000	28.2554
-17.3414	2.935000	34.7461
-15.3414	2.935000	37.4746
-13.3414	2.935000	19.8172
-11.3414	2.935000	0.000000
-9.341423	2.935000	0.000000
-7.341423	2.935000	0.000000
-5.341423	2.935000	0.000000
-3.341423	2.935000	0.000000
-1.341423	2.935000	0.000000
0.658577	2.935000	0.000000
2.658577	2.935000	0.000000
4.658577	2.935000	0.000000
6.658577	2.935000	33.9177
8.658577	2.935000	0.000000
10.6586	2.935000	0.000000
12.6586	2.935000	0.000000
14.6586	2.935000	0.000000
16.6586	2.935000	0.000000
18.6586	2.935000	21.4683
20.6586	2.935000	25.4779
22.6586	2.935000	0.000000
24.6586	2.935000	0.000000
-38.3414	3.935000	6.313413
-36.3414	3.935000	0.000000
-34.3414	3.935000	0.000000
-32.3414	3.935000	0.000000
-30.3414	3.935000	0.000000
-28.3414	3.935000	0.000000
-26.3414	3.935000	0.000000
-24.3414	3.935000	0.000000
-22.3414	3.935000	0.000000
-20.3414	3.935000	0.000000
-18.3414	3.935000	0.000000
-16.3414	3.935000	30.5695
-14.3414	3.935000	33.9758
-12.3414	3.935000	5.050931
-10.3414	3.935000	0.000000
-8.341423	3.935000	0.000000
-6.341423	3.935000	15.3297
-4.341423	3.935000	26.791
-2.341423	3.935000	0.000000
-0.341423	3.935000	0.000000
1.658577	3.935000	53.5645
3.658577	3.935000	0.000000
5.658577	3.935000	0.000000
7.658577	3.935000	0.000000
9.658577	3.935000	0.000000
11.6586	3.935000	0.000000
13.6586	3.935000	0.000000
15.6586	3.935000	0.000000
17.6586	3.935000	0.000000
19.6586	3.935000	0.000000
21.6586	3.935000	0.000000
23.6586	3.935000	0.000000
-39.3414	4.935000	0.000000
-37.3414	4.935000	1099.19
-35.3414	4.935000	0.000000
-33.3414	4.935000	0.000000
-31.3414	4.935000	0.000000
-29.3414	4.935000	15.8616
-27.3414	4.935000	17.4628
-25.3414	4.935000	0.000000
-23.3414	4.935000	0.000000
-21.3414	4.935000	4.561248
-19.3414	4.935000	0.000000
-17.3414	4.935000	0.000000
-15.3414	4.935000	9.076786
-13.3414	4.935000	35.0607
-11.3414	4.935000	0.000000
-9.341423	4.935000	0.000000
-7.341423	4.935000	0.000000
-5.341423	4.935000	33.0193
-3.341423	4.935000	6.396655
-1.341423	4.935000	0.000000
0.658577	4.935000	0.000000
2.658577	4.935000	10.9971
4.658577	4.935000	15.769
6.658577	4.935000	0.000000
8.658577	4.935000	0.000000
10.6586	4.935000	0.000000
12.6586	4.935000	0.000000
14.6586	4.935000	0.000000
16.6586	4.935000	0.000000
18.6586	4.935000	0.000000
20.6586	4.935000	0.000000
22.6586	4.935000	0.000000
24.6586	4.935000	0.000000
-38.3414	5.935000	0.000000
-36.3414	5.935000	0.000000
-34.3414	5.935000	0.000000
-32.3414	5.935000	0.000000
-30.3414	5.935000	31.9097
-28.3414	5.935000	33.8446
-26.3414	5.935000	31.6641
-24.3414	5.935000	63.4562
-22.3414	5.935000	12.3037
-20.3414	5.935000	15.4945
-18.3414	5.935000	0.000000
-16.3414	5.935000	0.000000
-14.3414	5.935000	0.000000
-12.3414	5.935000	27.9474
-10.3414	5.935000	0.000000
-8.341423	5.935000	0.000000
-6.341423	5.935000	0.000000
-4.341423	5.935000	32.9032
-2.341423	5.935000	0.000000
-0.341423	5.935000	0.000000
1.658577	5.935000	0.000000
3.658577	5.935000	16.5435
5.658577	5.935000	16.2084
7.658577	5.935000	0.000000
9.658577	5.935000	0.000000
11.6586	5.935000	0.000000
13.6586	5.935000	0.000000
15.6586	5.935000	0.000000
17.6586	5.935000	19.2805
19.6586	5.935000	0.000000
21.6586	5.935000	0.000000
23.6586	5.935000	0.000000
-39.3414	6.935000	0.000000
-37.3414	6.935000	0.000000
-35.3414	6.935000	0.000000
-33.3414	6.935000	0.000000
-31.3414	6.935000	16.9704
-29.3414	6.935000	96.6504
-27.3414	6.935000	26.0066
-25.3414	6.935000	18.2544
-23.3414	6.935000	38.9192
-21.3414	6.935000	4.001439
-19.3414	6.935000	0.000000
-17.3414	6.935000	0.000000
-15.3414	6.935000	0.000000
-13.3414	6.935000	0.000000
-11.3414	6.935000	13.5121
-9.341423	6.935000	55.7918
-7.341423	6.935000	1039.72
-5.341423	6.935000	20.0102
-3.341423	6.935000	0.000000
-1.341423	6.935000	0.000000
0.658577	6.935000	0.000000
2.658577	6.935000	23.2024
4.658577	6.935000	29.6456
6.658577	6.935000	0.000000
8.658577	6.935000	0.000000
10.6586	6.935000	0.000000
12.6586	6.935000	0.000000
14.6586	6.935000	29.3383
16.6586	6.935000	20.1728
18.6586	6.935000	0.000000
20.6586	6.935000	0.000000
22.6586	6.935000	14.0219
24.6586	6.935000	0.000000
-38.3414	7.935000	0.000000
-36.3414	7.935000	0.000000
-34.3414	7.935000	0.000000
-32.3414	7.935000	0.000000
-30.3414	7.935000	0.000000
-28.3414	7.935000	18.5382
-26.3414	7.935000	0.000000
-24.3414	7.935000	48.8217
-22.3414	7.935000	12.1839
-20.3414	7.935000	0.000000
-18.3414	7.935000	646.088
-16.3414	7.935000	0.000000
-14.3414	7.935000	0.000000
-12.3414	7.935000	0.000000
-10.3414	7.935000	0.000000
-8.341423	7.935000	0.000000
-6.341423	7.935000	0.000000
-4.341423	7.935000	16.2722
-2.341423	7.935000	0.000000
-0.341423	7.935000	0.000000
1.658577	7.935000	13.0112
3.658577	7.935000	8.677862
5.658577	7.935000	12.411
7.658577	7.935000	5.632926
9.658577	7.935000	0.000000
11.6586	7.935000	0.000000
13.6586	7.935000	8.923313
15.6586	7.935000	11.846
17.6586	7.935000	65.2023
19.6586	7.935000	38.9359
21.6586	7.935000	0.000000
23.6586	7.935000	0.000000
-39.3414	8.935000	0.000000
-37.3414	8.935000	0.000000
-35.3414	8.935000	0.000000
-33.3414	8.935000	0.000000
-31.3414	8.935000	0.000000
-29.3414	8.935000	0.000000
-27.3414	8.935000	0.000000
-25.3414	8.935000	28.2199
-23.3414	8.935000	11.2584
-21.3414	8.935000	0.000000
-19.3414	8.935000	0.000000
-17.3414	8.935000	0.000000
-15.3414	8.935000	0.000000
-13.3414	8.935000	0.000000
-11.3414	8.935000	0.000000
-9.341423	8.935000	18.3794
-7.341423	8.935000	8.499115
-5.341423	8.935000	5.741286
-3.341423	8.935000	0.000000
-1.341423	8.935000	0.000000
0.658577	8.935000	0.000000
2.658577	8.935000	1164.37
4.658577	8.935000	0.000000
6.658577	8.935000	27.2558
8.658577	8.935000	6.483848
10.6586	8.935000	5.901534
12.6586	8.935000	110.068
14.6586	8.935000	20.7288
16.6586	8.935000	29.798
18.6586	8.935000	33.2671
20.6586	8.935000	34.1987
22.6586	8.935000	33.9698
24.6586	8.935000	17.686
-38.3414	9.935000	0.000000
-36.3414	9.935000	0.000000
-34.3414	9.935000	0.000000
-32.3414	9.935000	0.000000
-30.3414	9.935000	0.000000
-28.3414	9.935000	7.449870
-26.3414	9.935000	0.000000
-24.3414	9.935000	26.8515
-22.3414	9.935000	0.000000
-20.3414	9.935000	19.3645
-18.3414	9.935000	4.198070
-16.3414	9.935000	19.5565
-14.3414	9.935000	0.000000
-12.3414	9.935000	0.000000
-10.3414	9.935000	0.000000
-8.341423	9.935000	0.000000
-6.341423	9.935000	0.000000
-4.341423	9.935000	966.136
-2.341423	9.935000	0.000000
-0.341423	9.935000	0.000000
1.658577	9.935000	16.8456
3.658577	9.935000	0.000000
5.658577	9.935000	0.000000
7.658577	9.935000	6.279087
9.658577	9.935000	11.4249
11.6586	9.935000	20.1503
13.6586	9.935000	34.7673
15.6586	9.935000	34.0766
17.6586	9.935000	34.3407
19.6586	9.935000	36.7466
21.6586	9.935000	23.2708
23.6586	9.935000	37.0539
-39.3414	10.935	0.000000
-37.3414	10.935	0.000000
-35.3414	10.935	0.000000
-33.3414	10.935	0.000000
-31.3414	10.935	0.000000
-29.3414	10.935	0.000000
-27.3414	10.935	8.557532
-25.3414	10.935	29.4313
-23.3414	10.935	30.8818
-21.3414	10.935	20.9429
-19.3414	10.935	0.000000
-17.3414	10.935	54.8516
-15.3414	10.935	0.000000
-13.3414	10.935	0.000000
-11.3414	10.935	0.000000
-9.341423	10.935	1.910570
-7.341423	10.935	37.2711
-5.341423	10.935	0.000000
-3.341423	10.935	19.1577
-1.341423	10.935	0.000000
0.658577	10.935	0.000000
2.658577	10.935	0.000000
4.658577	10.935	7.389035
6.658577	10.935	0.000000
8.658577	10.935	26.6347
10.6586	10.935	23.9318
12.6586	10.935	19.0431
14.6586	10.935	34.0697
16.6586	10.935	36.7531
18.6586	10.935	33.8108
20.6586	10.935	20.3694
22.6586	10.935	17.677
24.6586	10.935	33.1032
-38.3414	11.935	0.000000
-36.3414	11.935	0.000000
-34.3414	11.935	0.000000
-32.3414	11.935	0.000000
-30.3414	11.935	0.000000
-28.3414	11.935	0.000000
-26.3414	11.935	17.9889
-24.3414	11.935	31.8816
-22.3414	11.935	23.741
-20.3414	11.935	15.6691
-18.3414	11.935	11.142
-16.3414	11.935	7.914596
-14.3414	11.935	0.000000
-12.3414	11.935	0.000000
-10.3414	11.935	3.378701
-8.341423	11.935	8.320202
-6.341423	11.935	13.4476
-4.341423	11.935	0.000000
-2.341423	11.935	25.8635
-0.341423	11.935	0.000000
1.658577	11.935	0.000000
3.658577	11.935	0.000000
5.658577	11.935	0.000000
7.658577	11.935	0.000000
9.658577	11.935	0.000000
11.6586	11.935	0.000000
13.6586	11.935	25.7399
15.6586	11.935	34.1727
17.6586	11.935	33.2696
19.6586	11.935	35.709
21.6586	11.935	26.9007
23.6586	11.935	14.214
-39.3414	12.935	0.000000
-37.3414	12.935	0.000000
-35.3414	12.935	0.000000
-33.3414	12.935	0.000000
-31.3414	12.935	0.000000
-29.3414	12.935	0.000000
-27.3414	12.935	23.0817
-25.3414	12.935	34.3417
-23.3414	12.935	0.000000
-21.3414	12.935	3.088372
-19.3414	12.935	0.000000
-17.3414	12.935	9.893927
-15.3414	12.935	0.000000
-13.3414	12.935	0.000000
-11.3414	12.935	0.000000
-9.341423	12.935	0.000000
-7.341423	12.935	58.9059
-5.341423	12.935	20.1913
-3.341423	12.935	2000
-1.341423	12.935	0.000000
0.658577	12.935	0.000000
2.658577	12.935	0.000000
4.658577	12.935	10.0255
6.658577	12.935	0.000000
8.658577	12.935	10.1614
10.6586	12.935	0.000000
12.6586	12.935	26.0473
14.6586	12.935	37.9845
16.6586	12.935	32.7764
18.6586	12.935	32.6802
20.6586	12.935	36.2778
22.6586	12.935	27.1675
24.6586	12.935	30.6715
-38.3414	13.935	0.000000
-36.3414	13.935	0.000000
-34.3414	13.935	0.000000
-32.3414	13.935	0.000000
-30.3414	13.935	0.000000
-28.3414	13.935	0.000000
-26.3414	13.935	0.000000
-24.3414	13.935	21.8676
-22.3414	13.935	0.000000
-20.3414	13.935	0.000000
-18.3414	13.935	0.000000
-16.3414	13.935	9.752700
-14.3414	13.935	0.000000
-12.3414	13.935	25.2473
-10.3414	13.935	25.6046
-8.341423	13.935	8.449352
-6.341423	13.935	17.2358
-4.341423	13.935	179.226
-2.341423	13.935	18.9729
-0.341423	13.935	257.814
1.658577	13.935	0.000000
3.658577	13.935	26.3358
5.658577	13.935	34.4646
7.658577	13.935	0.000000
9.658577	13.935	0.000000
11.6586	13.935	0.000000
13.6586	13.935	30.9694
15.6586	13.935	34.2604
17.6586	13.935	38.8948
19.6586	13.935	36.9567
21.6586	13.935	38.3332
23.6586	13.935	35.5709
-39.3414	14.935	0.000000
-37.3414	14.935	0.000000
-35.3414	14.935	0.000000
-33.3414	14.935	0.000000
-31.3414	14.935	0.000000
-29.3414	14.935	0.000000
-27.3414	14.935	12.9384
-25.3414	14.935	7.217394
-23.3414	14.935	29.1774
-21.3414	14.935	0.000000
-19.3414	14.935	0.000000
-17.3414	14.935	18.3671
-15.3414	14.935	0.000000
-13.3414	14.935	14.585
-11.3414	14.935	25.9876
-9.341423	14.935	35.1779
-7.341423	14.935	0.000000
-5.341423	14.935	0.000000
-3.341423	14.935	16.1937
-1.341423	14.935	0.000000
0.658577	14.935	0.000000
2.658577	14.935	0.000000
4.658577	14.935	37.1437
6.658577	14.935	35.3624
8.658577	14.935	10.2195
10.6586	14.935	0.000000
12.6586	14.935	12.356
14.6586	14.935	37.9463
16.6586	14.935	37.2326
18.6586	14.935	34.6276
20.6586	14.935	37.4943
22.6586	14.935	35.481
24.6586	14.935	39.4097
-38.3414	15.935	0.000000
-36.3414	15.935	0.000000
-34.3414	15.935	0.000000
-32.3414	15.935	0.000000
-30.3414	15.935	0.000000
-28.3414	15.935	32.061
-26.3414	15.935	0.000000
-24.3414	15.935	11.7219
-22.3414	15.935	34.3983
-20.3414	15.935	6.381546
-18.3414	15.935	0.000000
-16.3414	15.935	0.000000
-14.3414	15.935	0.000000
-12.3414	15.935	0.000000
-10.3414	15.935	36.4624
-8.341423	15.935	35.4532
-6.341423	15.935	33.7764
-4.341423	15.935	1.368802
-2.341423	15.935	17.2719
-0.341423	15.935	0.000000
1.658577	15.935	0.000000
3.658577	15.935	23.4693
5.658577	15.935	34.7468
7.658577	15.935	33.6044
9.658577	15.935	0.000000
11.6586	15.935	27.8242
13.6586	15.935	31.2789
15.6586	15.935	37.894
17.6586	15.935	35.1649
19.6586	15.935	34.3935
21.6586	15.935	35.5033
23.6586	15.935	38.5251
24.6586	15.935	35.7012